time,acc_x_g,acc_y_g,acc_z_g,gyro_x_rad_s,gyro_y_rad_s,gyro_z_rad_s
1765408807.430213,-0.03117284751366817,0.025338765046755668,-0.016043343638663554,-2.4029454727153894,-0.26947362571400874,-0.17546807315145754
1765408807.430413,-1.5663334151085624,-0.1640076582273201,-0.08241621573843015,-2.031635064382564,-0.22831212801909537,-0.14840463837082574
1765408807.430613,-3.068167174392051,-0.3495587212098455,-0.14489345578726692,-1.6690372386904606,-0.18818211504904547,-0.12196670248824397
1765408807.430813,-4.503413382379093,-0.5280186011220624,-0.20126452584522778,-1.3233207823995237,-0.15004931424821766,-0.0967510094673711
1765408807.431013,-5.84229423793237,-0.6965170590365198,-0.249734956037266,-1.0017660535406077,-0.11478303949899082,-0.07328930174483395
1765408807.431118,-7.059886271667538,-0.8527402228411614,-0.28903850560727634,-0.7104233802441282,-0.08311576166127828,-0.05202343112870273
1765408807.431368,-8.137081624451742,-0.9950161836828861,-0.31851222991113154,-0.45387323681736613,-0.055613714640606965,-0.033287893069505164
1765408807.431618,-9.06110854138942,-1.1223535388865353,-0.33812983773429717,-0.23509628320695183,-0.03265955213163833,-0.017300374553069733
1765408807.431868,-9.825626205486389,-1.234435917367599,-0.3484919697840711,-0.055450179064929474,-0.01444686486058029,-0.004160094140210171
1765408807.432115,-10.430441975375487,-1.3315787456278567,-0.3507750194991555,0.08525802775600412,-0.000985494019766101,0.006146878334515911
1765408807.432365,-10.880920189112615,-1.41465628956382,-0.3466427954321675,0.18862044675481113,0.007884001295243765,0.013736521350730262
1765408807.432615,-11.187162576488575,-1.4850076146470912,-0.3381276138371518,0.2574172380169671,0.012468695122813017,0.01881139057874113
1765408807.432865,-11.363042722173155,-1.54432979304116,-0.32748928408145184,0.29536619062503316,0.013196566207480253,0.021642256575911806
1765408807.433188,-11.42517278862696,-1.594565766701485,-0.3170618121221372,0.30685268881391525,0.010586763240172032,0.022548292030868403
1765408807.433438,-11.39187177307018,-1.6377931421392529,-0.30909829830900754,0.2966579739373808,0.005218786325904137,0.021877129798558544
1765408807.433688,-11.28219269699056,-1.6761191802198339,-0.30562441066478463,0.2697010161585168,-0.0022977288576432222,0.019985933095387074
1765408807.433938,-11.115052599359418,-1.711586459370786,-0.30831025349051383,0.2308062336920748,-0.011351219937261363,0.017224394256567254
1765408807.434174,-10.908495012580318,-1.7460929182902207,-0.31836957225491963,0.18450601471161554,-0.0213532877465049,0.013920325038215463
1765408807.434424,-10.679100932949446,-1.7813288673466692,-0.3364935803510132,0.1348837333369808,-0.03175983868601042,0.010368243157420964
1765408807.434674,-10.441552539403387,-1.8187320147591495,-0.3628236893842516,0.08545987873182966,-0.042087727336198595,0.006821123902526152
1765408807.434924,-10.208344927858423,-1.8594599457425092,-0.396963384352588,0.03912116589908865,-0.051926624020023786,0.003485290801870512
1765408807.43518,-9.989634769042608,-1.9043782877658262,-0.43802557168549155,-0.0019098295326195043,-0.06094610480275736,0.0005182675245234556
1765408807.43538,-9.793210324884212,-1.9540621843619417,-0.48470890426841384,-0.03606880173942925,-0.0688982127219698,-0.0019707039681151318
1765408807.43558,-9.62456412245244,-2.008808572454561,-0.5353950714147612,-0.06241320685431061,-0.07561595334078536,-0.003917864419563429
1765408807.43578,-9.487047745256238,-2.0686568703880797,-0.588258671486388,-0.08056150663078485,-0.08100835730630361,-0.005300309206597273
1765408807.43598,-9.38208782357487,-2.1334158271409054,-0.6413818429772812,-0.09061487220968152,-0.08505285902121071,-0.006130023176038107
1765408807.436132,-9.309443287901214,-2.202694431363241,-0.6928670095217943,-0.09306796029399737,-0.08778579100345953,-0.006447080815267813
1765408807.436382,-9.267485824569327,-2.2759350757856605,-0.7409425053908976,-0.08871493408231663,-0.08929177208498942,-0.006312494453766478
1765408807.436632,-9.253487822375883,-2.3524476905892717,-0.7840570391349786,-0.07855619574311479,-0.08969268664766084,-0.005801146415964471
1765408807.436882,-9.263904961161751,-2.431444139958746,-0.8209594225696387,-0.06371040844334969,-0.08913683721229965,-0.0049951710550371
1765408807.437116,-9.294644125790663,-2.512072572482174,-0.8507595906041663,-0.04533539605920432,-0.08778872568287281,-0.0039780652418002615
1765408807.437366,-9.341311012883304,-2.593451487041585,-0.872966415481906,-0.024560489548638723,-0.08581978993762658,-0.0028297136384251888
1765408807.437616,-9.39943437512667,-2.6747030270088925,-0.887498541622874,-0.0024318953239254536,-0.08340030197575715,-0.0016224333311084368
1765408807.437866,-9.464664440413907,-2.754984589449293,-0.8946671361262366,0.02012826422044744,-0.08069253933299006,-0.0004180773274657359
1765408807.438112,-9.532942285902267,-2.8335174478137946,-0.8951331303335849,0.0423494043448393,-0.07784528596271742,0.000733816909080037
1765408807.438362,-9.600636585987113,-2.9096108863029255,-0.8898443473537917,0.06362726544837013,-0.07498968885483114,0.0017968942236287597
1765408807.438612,-9.664645283421704,-2.9826804005907075,-0.8799588933242347,0.08352738640348299,-0.07223645973679774,0.00274796344628696
1765408807.438862,-9.72246180960077,-3.052258889626098,-0.8667609918344793,0.10177896737897792,-0.06967435214961251,0.003576223623145032
1765408807.439164,-9.772207313716724,-3.11800039121926,-0.8515751379900387,0.11826102896233183,-0.06736978204918417,0.004281883340475744
1765408807.439414,-9.812631545557537,-3.179676566253293,-0.835684265523285,0.13298284827005466,-0.06536742175777122,0.004874329933553432
1765408807.439664,-9.843085953871784,-3.2371666698436123,-0.8202571802575032,0.14606062061942301,-0.06369158789348209,0.005370008977121741
1765408807.439914,-9.863473468970307,-3.2904422875676325,-0.8062896351754789,0.15769218054056675,-0.06234825026534148,0.005790178471501022
1765408807.440103,-9.874180184895238,-3.339548711135665,-0.7945621353691943,0.16813143658020435,-0.06132749828470916,0.006158700785102298
1765408807.440353,-9.875994582725303,-3.3845851861038843,-0.7856158816034657,0.17766394171674185,-0.06060631158979267,0.006500017360680455
1765408807.440603,-9.870020012411608,-3.4256861294094034,-0.7797464610081822,0.18658474658972815,-0.06015149255173996,0.006837414954132446
1765408807.440853,-9.857585781983671,-3.463004961207557,-0.7770135422534841,0.1951793875196639,-0.059922626770115596,0.007191648732567078
1765408807.441164,-9.84016127238217,-3.4967017417113264,-0.7772642265992831,0.20370857209245746,-0.05987494177312119,0.007579948225072022
1765408807.441414,-9.819276125810939,-3.5269353950915545,-0.7801676117103999,0.2123968547805842,-0.05996194221370119,0.008015400333832629
1765408807.441664,-9.796448140709684,-3.5538608129890648,-0.7852581703661655,0.22142533832760236,-0.06013772318443356,0.00850667841243252
1765408807.443093,-9.773119436283972,-3.577630561566288,-0.7919855068095063,0.230928191205193,-0.06035889788307434,0.00905806801549
1765408807.443343,-9.750600887156159,-3.598400412899098,-0.7997678048221165,0.24099255625381097,-0.06058610480668163,0.009669729506668466
1765408807.443593,-9.730024825895498,-3.6163375858487803,-0.8080457831553223,0.251661271457866,-0.060785078364274964,0.010338134829003828
1765408807.443843,-9.712306643473141,-3.631630384629403,-0.8163333037130293,0.2629377499862752,-0.060927288769461484,0.01105661824830913
1765408807.4432,-9.69811696506117,-3.644497778758414,-0.8242601960529445,0.2747923671093466,-0.06099018655468055,0.01181598601093121
1765408807.44345,-9.687866683252826,-3.6551973433701432,-0.8316029314878045,0.28716975012154866,-0.060957106818589825,0.012605135929274834
1765408807.4437,-9.6817064030075,-3.664029954653267,-0.8383000501068489,0.2999964351152419,-0.06081688843471266,0.01341164714406316
1765408807.44395,-9.67954001436007,-3.671339852192423,-0.8444514592267095,0.3131884236136896,-0.06056326128972147,0.014222316229173367
1765408807.44419,-9.681050451190451,-3.6775091927757724,-0.8503028005498201,0.32665823771334196,-0.06019406765851122,0.015023635338745393
1765408807.44444,-9.685735117814815,-3.682946944157664,-0.8562172536502964,0.3403211390857672,-0.059710401366772387,0.015802222048786816
1765408807.44469,-9.692948570739642,-3.688072757586603,-0.8626376512318215,0.35410025289129543,-0.05911574902641506,0.016545213687093094
1765408807.44494,-9.701949911865713,-3.693297130178359,-0.8700422489629799,0.3679304241267414,-0.05841519837997153,0.017240634532594303
1765408807.445149,-9.711951739986041,-3.6989994972922,-0.878898050363976,0.38176072469874994,-0.057614753275449605,0.017877738504874355
1765408807.445399,-9.722166982089043,-3.7055057729742233,-0.8896158664451015,0.3955556168415921,-0.056720776010217695,0.018447326117601692
1765408807.445649,-9.73185009020293,-3.713066438219494,-0.902510999637244,0.40929485641934354,-0.05573957003701351,0.018942032373207504
1765408807.445899,-9.740329975803531,-3.7218358630651833,-0.9177727611998401,0.4229722825905356,-0.05467711509775933,0.01935658128484398
1765408807.446146,-9.74703320670212,-3.731853372549108,-0.9354453796418519,0.4365936851130677,-0.05353896608426454,0.019688003457480462
1765408807.446479,-9.751496990666546,-3.743026727590424,-0.9554223112511888,0.45017396833583334,-0.05233032309848399,0.019935815432778232
1765408807.446813,-9.753372208064777,-3.755119122613586,-0.9774552134971821,0.46373384496184783,-0.05105626884078435,0.02010216037100193
1765408807.447134,-9.752417331488259,-3.7677412222733317,-1.001177695399749,0.47729629717419597,-0.04972214445283801,0.020191906758585745
1765408807.447384,-9.748484811203436,-3.7803498934776005,-1.0261422516985943,0.4908830427623472,-0.04833400361794404,0.020212696639305264
1765408807.447634,-9.741502853473373,-3.7922551822235344,-1.0518661590231204,0.5045112430158464,-0.04689906520803987,0.020174929603236587
1765408807.447884,-9.731457244001891,-3.8026369373970548,-1.0778789956497765,0.5181906851269001,-0.04542607891789118,0.02009166371381468
1765408807.448201,-9.718378868094517,-3.8105722241715574,-1.1037625796386197,0.5319216539822541,-0.043925516847985006,0.019978411075263738
1765408807.448451,-9.702342139409925,-3.8150740426208696,-1.1291748404538553,0.5456936633301377,-0.04240951786727065,0.019852807573513143
1765408807.448701,-9.683477863971039,-3.8151408289894495,-1.1538522394878785,0.559485144389703,-0.040891553179267084,0.01973414480912437
1765408807.448951,-9.66200100718444,-3.8098149494669107,-1.177590269162483,0.5732641084267167,-0.03938582507716239,0.019642763235429704
1765408807.44915,-9.638249021793712,-3.798247065530369,-1.2002076183259236,0.5869897239626624,-0.037906427455171136,0.01959931361553353
1765408807.4494,-9.612721288899252,-3.779761974099856,-1.22150453928511,0.6006146808113951,-0.03646631020219181,0.01962389937434626
1765408807.44965,-9.586107905176902,-3.753920514199665,-1.2412269898501012,0.6140881539026901,-0.03507614042412534,0.0197351211524154
1765408807.4499,-9.559297825266722,-3.7205716925901036,-1.259045306687075,0.6273591382163146,-0.03374322549450948,0.019949059796959212
1765408807.450169,-9.533360481566849,-3.679889507990657,-1.2745522750194909,0.6403799054188898,-0.03247069986199255,0.02027825028003214
1765408807.450419,-9.50949938099006,-3.632389977646678,-1.2872821761263251,0.6531093283195296,-0.031257153994632594,0.020730709966504765
1765408807.450669,-9.48898039659749,-3.578925389741617,-1.2967491735834018,0.6655158265393933,-0.030096818693088737,0.021309087965292985
1765408807.450919,-9.473041448799275,-3.5206546254613484,-1.3025000762061276,0.677579706482274,-0.028980332599585892,0.02200999959483765
1765408807.451127,-9.462793027965125,-3.458990295711353,-1.3041743430403254,0.6892947061833959,-0.02789602352424308,0.022823605111978285
1765408807.451377,-9.459119663754185,-3.3955252270878677,-1.3015639951114901,0.7006686139612477,-0.026831541075004732,0.023733488125196704
1765408807.451627,-9.462591314946877,-3.33194243948157,-1.2946672636041885,0.7117229022391901,-0.025775616464086812,0.02471688451316995
1765408807.451877,-9.47339180300139,-3.2699141259700673,-1.2837313415339033,0.7224913919370347,-0.024719712904922624,0.02574530039737967
1765408807.452177,-9.491269707128557,-3.210996159518202,-1.2692809309791664,0.7330180301575185,-0.02365936059236397,0.026785534697436705
1765408807.452427,-9.515515884654254,-3.1565252981373755,-1.252130080857398,0.7433539230920769,-0.022595021874932477,0.027801093366284977
1765408807.452677,-9.544970723697373,-3.107526611084053,-1.2333751617737982,0.753553817963718,-0.021532386266364504,0.028753954251253402
1765408807.452927,-9.578062832702585,-3.064638555537133,-1.2143672798035512,0.7636722690650184,-0.02048204969851635,0.029606610561929963
1765408807.453131,-9.612878972891147,-3.0280622308193883,-1.196663318085756,0.7737597452815849,-0.019458595784271882,0.030324282155880147
1765408807.453381,-9.647263173096174,-2.9975394913749245,-1.1819557700385852,0.7838589356764047,-0.01847916609912272,0.03087714386131603
1765408807.453631,-9.678941522800326,-2.972362128899328,-1.1719824660179599,0.7940014906787705,-0.017561661845527383,0.03124239390479856
1765408807.453881,-9.705667554945656,-2.951411700825677,-1.1684189454455363,0.8042054054494767,-0.016722741237568825,0.031405983318269985
1765408807.455907,-9.725380556658518,-2.9332271251094313,-1.1727590826339487,0.8144732111227136,-0.015975769870607406,0.031363851506902345
1765408807.456157,-9.736365851214675,-2.916095185048993,-1.186192712032862,0.8247910902308944,-0.015328874313460297,0.031122560988659773
1765408807.456407,-9.737403453566019,-2.898157870443131,-1.2094910405595678,0.8351289767109638,-0.014783263019565004,0.030699283452857
1765408807.456657,-9.72789051854979,-2.877530020379945,-1.2429113443367952,0.8454416417527117,-0.014331997054245305,0.03012114255520689
1765408807.455963,-9.707923696727065,-2.8524207047684516,-1.286132227015589,0.855670712462585,-0.013959383690795447,0.029423957921050497
1765408807.456213,-9.678329929809047,-2.821251844100229,-1.338229069034001,0.8657475280148846,-0.013641121769170969,0.028650462027976484
1765408807.456463,-9.640638800151164,-2.782767566164032,-1.3976954012729832,0.8755967041251426,-0.013345265078847892,0.027848081305914527
1765408807.456713,-9.59699599639274,-2.736127780711324,-1.4625105499673983,0.8851402432230304,-0.013033997451328574,0.027066389661144257
1765408807.456087,-9.550024305711528,-2.6809796538960593,-1.5302489514995194,0.8943019936316042,-0.01266613060297207,0.026354360789799965
1765408807.456337,-9.502644407726033,-2.6175012732561496,-1.5982228531869815,0.9030122299260431,-0.012200152486631364,0.02575756093823155
1765408807.456587,-9.457872066019583,-2.5464126913802723,-1.6636470825202028,0.9112120989333332,-0.011597584939672381,0.02531542795776023
1765408807.456837,-9.418610555730131,-2.4689506643406105,-1.7238120995616208,0.9188576506190976,-0.010826361860149103,0.025058778839243248
1765408807.457111,-9.387456390631659,-2.3868052156874624,-1.7762509928382497,0.9259231556740953,-0.00986391747815763,0.02500768860783051
1765408807.457361,-9.366532572547682,-2.302019110232853,-1.8188882942612694,0.9324034165878493,-0.008699689794974508,0.025169889554888244
1765408807.457611,-9.357358628147834,-2.2168550996504477,-1.8501618957785746,0.9383148222044586,-0.007336804012985163,0.025539837146542527
1765408807.457861,-9.360763019950491,-2.133639552668801,-1.869111588939085,0.9436949806812762,-0.005792788452796112,0.026098565181139045
1765408807.458122,-9.376841380834257,-2.0545941261438583,-1.8754288693631405,0.9486008797044266,-0.004099260084956895,0.026814407434757104
1765408807.458372,-9.404961848099477,-1.9816691449417354,-1.8694645325067138,0.9531056466448351,-0.0023005884553672987,0.027644602463320816
1765408807.458622,-9.443815720950887,-1.9163931426760434,-1.8521937556902779,0.9572940993970762,-0.0004516221966567719,0.028537728833016678
1765408807.458872,-9.491508240481497,-1.8597523292526998,-1.825141891051122,0.9612573779969523,0.0013853588905719633,0.029436843996720734
1765408807.4591,-9.545680985709451,-1.812111387877347,-1.790277859688723,0.9650870167132184,0.003144253575692465,0.030283125594260663
1765408807.45935,-9.60365468151046,-1.773183158580565,-1.7498857158555425,0.9688688554208782,0.004759088070283262,0.031019750474403023
1765408807.4596,-9.66258045351883,-1.7420501707695508,-1.706426887034253,0.9726772081041684,0.00616807375133977,0.03159571102865386
1765408807.45985,-9.71958969592215,-1.7172364313866715,-1.662404074867361,0.9765697100843689,0.007317515534807919,0.03196926859922877
1765408807.460095,-9.771936393971608,-1.696823741788101,-1.6202339755811135,0.9805832432799918,0.008165291271495071,0.03211077544663309
1765408807.460345,-9.817128379223158,-1.6786032288420307,-1.5821327096252076,0.9847312764745768,0.008683629454219379,0.032004653828412485
1765408807.460595,-9.85304474740611,-1.6602499333413736,-1.550016215268497,0.9890028537034868,0.008860940871473042,0.03165039633008318
1765408807.460845,-9.878036563756893,-1.639506541789761,-1.5254170743636806,0.9933633335094544,0.008702522098913638,0.031062533311865006
1765408807.461161,-9.891007394944586,-1.614361925319165,-1.509419329465133,0.9977568481431163,0.008230068261600184,0.03026958840247163
1765408807.461411,-9.891468711683874,-1.5832109073981642,-1.50261438722065,1.0021103299691652,0.007480078360884956,0.029312104309412914
1765408807.461661,-9.87956382350092,-1.5449831124817472,-1.5050826790415763,1.0063388432528182,0.006501341099283024,0.028239868681874284
1765408807.461911,-9.856054960706343,-1.499230525255695,-1.5164049044493622,1.0103518613753277,0.005351729442309874,0.027108511306772342
1765408807.462133,-9.8222720144983,-1.4461657742900584,-1.535703144266023,1.0140600472808674,0.004094542142967422,0.02597568893896026
1765408807.462383,-9.78002641986006,-1.3866467164349423,-1.5617079881830995,1.0173820382916334,0.002794645286608684,0.02489712053053275
1765408807.462633,-9.731497349311905,-1.322107785375877,-1.592845149997783,1.0202507170758326,0.001514685917940308,0.02392276747059463
1765408807.462883,-9.679098799760197,-1.2544439940238037,-1.6273346009042082,1.0226184765124844,0.00031164814411083664,0.023093451052299794
1765408807.463112,-9.625336111952231,-1.1858581058413167,-1.6632962775180153,1.0244610556731955,-0.0007660175895479839,0.022438155694017123
1765408807.463362,-9.572660629447,-1.1186844638049303,-1.698857094706368,1.025779631767144,-0.001680530760975583,0.021972196841694623
1765408807.463612,-9.523332274617518,-1.0552044043427735,-1.7322532416419052,1.0266009941059135,-0.0024060937031234538,0.02169636166638912
1765408807.463862,-9.47930061459586,-0.9974685437352957,-1.7619205895023367,1.0269757874335954,-0.0029293456466586315,0.02159706814856701
1765408807.464155,-9.442113873573732,-0.9471406061074703,-1.7865662890834588,1.0269749713264424,-0.003248959343822053,0.021647527526367536
1765408807.464405,-9.412862124582684,-0.9053757048326916,-1.8052167188686195,1.0266847851118668,-0.003374427571825545,0.021809832826112995
1765408807.464655,-9.39215681213861,-0.8727430411981548,-1.8172398403930825,1.0262006282670768,-0.0033241567691227,0.022037834995977192
1765408807.464905,-9.380145090110185,-0.8491989452626825,-1.8223426801928186,1.0256203558032098,-0.0031230600530193376,0.022280609536627288
1765408807.465152,-9.376554633593827,-0.8341113543297642,-1.8205467287486057,1.025037533498509,-0.0027998899559119124,0.022486265270076855
1765408807.465402,-9.380762525246883,-0.8263319196016838,-1.8121454632213023,1.0245351902616113,-0.0023845639602773556,0.02260581400380988
1765408807.465652,-9.391880491828536,-0.8243078225674703,-1.7976489361691992,1.0241805463943685,-0.0019057254063790583,0.022596811250138363
1765408807.465902,-9.408848076842705,-0.8262224247593459,-1.7777207333065712,1.0240210985953948,-0.0013887547719188245,0.022426490655224323
1765408807.466156,-9.430524999273102,-0.8301518942976372,-1.753113139284629,1.0240823185223147,-0.0008543971163356314,0.02207414769073657
1765408807.466406,-9.455773973078765,-0.8342239060942088,-1.7246071352033496,1.0243670830574143,-0.0003180989574544957,0.021532587375928093
1765408807.466656,-9.483526204157329,-0.8367646462794371,-1.6929641024238729,1.0248568137708753,0.00020994224188747583,0.020808536334635655
1765408807.466906,-9.512824161879715,-0.8364218231423504,-1.6588947334216528,1.0255141722158392,0.0007241124365054948,0.019922018666920855
1765408807.467099,-9.542839888353035,-0.8322542070449699,-1.6230472388772872,1.0262870428959543,0.0012222897035323336,0.018904791337212425
1765408807.467349,-9.572871269165285,-0.8237822605572226,-1.5860123808282114,1.0271134420673802,0.0017045769253181498,0.01779801219615737
1765408807.467599,-9.602322096069999,-0.8109989898512593,-1.548339246391034,1.0279269276994902,0.002172110545005651,0.016649357031299092
1765408807.467849,-9.630673025534335,-0.7943439894855036,-1.5105550695005117,1.0286620655939291,0.0026261540348730622,0.015509809775634079
1765408807.468152,-9.657449509257345,-0.7746458911296941,-1.473184605422704,1.0292595319622893,0.0030676167206061845,0.014430342726337109
1765408807.468352,-9.682191320492352,-0.7530393999420689,-1.4367666837519033,1.029670491167828,0.0034970508346271155,0.013458701897517052
1765408807.468552,-9.704428185783287,-0.7308638898517221,-1.4018655509406843,1.0298599622022309,0.003915083492989976,0.01263651467581244
1765408807.468752,-9.723666403240946,-0.7095516922729144,-1.3690738622943293,1.02980897423751,0.004323167817954871,0.011996925717616985
1765408807.468952,-9.739390314023849,-0.6905152580982743,-1.339004638467512,1.0295154111977163,0.004724502557583165,0.011562929795423818
1765408807.469182,-9.751080182893157,-0.6750424892569687,-1.312270548157165,1.0289935517102256,0.0051249513865911445,0.011346509835590749
1765408807.469432,-9.758245603230987,-0.6642084909634131,-1.289449771553334,1.0282724162232062,0.005533776492037072,0.011348619057739488
1765408807.469682,-9.760470837956483,-0.6588100949912414,-1.2710399317474794,1.0273931304217552,0.005964000692032374,0.01155997734014957
1765408807.469932,-9.757465118819615,-0.6593270275822157,-1.257405834436098,1.0264055900855695,0.006432246256798327,0.01196258170648409
1765408807.470114,-9.749108341506341,-0.6659106162891089,-1.2487303020029505,1.0253647527201497,0.0069579647555210854,0.012531759980121458
1765408807.470364,-9.735483042535234,-0.6783975801029464,-1.2449772180905962,1.024326879221961,0.007562061997904485,0.013238538177938781
1765408807.470614,-9.716887007770541,-0.6963432002170913,-1.2458725639119865,1.0233460051597933,0.008265033658584737,0.014052063382159332
1765408807.470864,-9.693824937169934,-0.7190659204146147,-1.2509057214301542,1.0224708435073124,0.009084842682453416,0.014941837038977548
1765408807.471128,-9.666980395267634,-0.7456952010720973,-1.2593512699492975,1.0217422277847155,0.01003484065443047,0.01587957031776306
1765408807.471378,-9.637171128296933,-0.7752166566041421,-1.270310020285403,1.0211911253138466,0.011122027054192313,0.01684055820161948
1765408807.471628,-9.605292633333585,-0.8065123285563753,-1.2827660421161644,1.0208372097513063,0.012345875103722028,0.01780455533281658
1765408807.471878,-9.57225627755942,-0.8383977277515635,-1.295654513503046,1.0206879842049625,0.013697877468036624,0.01875620136323745
1765408807.472126,-9.538928422449933,-0.8696595908711654,-1.3079343526025342,1.0207384738271033,0.015161889882221143,0.01968508023320558
1765408807.472376,-9.506076064553293,-0.8990985553364284,-1.318659563622232,1.020971538796423,0.016715253515414873,0.020585513182881245
1765408807.472626,-9.474323284399624,-0.9255793278887253,-1.3270433336787475,1.0213588763451766,0.018330556215039963,0.021456185487096054
1765408807.472876,-9.444121491145468,-0.9480881354011007,-1.3325093688823322,1.021862763614598,0.019977788291545288,0.022299691131765234
1765408807.473167,-9.415734804623083,-0.9657942977096664,-1.334726360929008,1.022438531328753,0.021626602327005404,0.02312204707215553
1765408807.473417,-9.38924029759222,-0.9781103436771297,-1.3336234170058594,1.0230376649263406,0.02324840837894459,0.02393218647617934
1765408807.473667,-9.364541950281668,-0.9847434616112105,-1.329385717475798,1.023611332966588,0.02481811066134739,0.02474140562616123
1765408807.473917,-9.341396943907633,-0.9857306303896038,-1.3224304476849185,1.0241140684951437,0.026315393184119254,0.025562730676807352
1765408807.474114,-9.319452547291716,-0.9814511142536869,-1.313364014588226,1.024507294326736,0.027725555706352992,0.026410190740056263
1765408807.474364,-9.29829103944436,-0.9726129854957648,-1.3029232739041494,1.0247623919231388,0.029039959947466245,0.02729801351319359
1765408807.474614,-9.277479356721622,-0.9602136694588875,-1.2919056592477964,1.0248630580643088,0.030256161796755995,0.028239776462118057
1765408807.474864,-9.256620008125811,-0.9454767411548173,-1.2810946944592114,1.0248067590007526,0.031377786417055964,0.02924754472624978
1765408807.475098,-9.235400282940406,-0.9297680456302089,-1.2711873116175605,1.0246051597326895,0.03241417181841312,0.03033102055848845
1765408807.475348,-9.2136372553429,-0.9144947129508314,-1.26272794242297,1.0242834639958,0.03337979019292679,0.03149674108388069
1765408807.475598,-9.191315823972763,-0.9009921258967761,-1.2560531886324795,1.0238786535064437,0.03429345615965589,0.03274739932754878
1765408807.475848,-9.168616092338299,-0.8904066570456127,-1.2512509752227743,1.0234366786977873,0.0351773234645467,0.03408140432278071
1765408807.476133,-9.145925710140796,-0.8835849617567917,-1.248138593402002,1.0230087358271953,0.03605565666313755,0.035492804529591075
1765408807.476383,-9.123833010289932,-0.8809823069882178,-1.2462638492224605,1.0226468614895254,0.03695337177970933,0.036971662211012564
1765408807.476633,-9.10309800116041,-0.8826019608866188,-1.2449322828069938,1.022399170306517,0.03789438204643188,0.0385049003605441
1765408807.476883,-9.08460068380676,-0.8879751535218162,-1.2432608498998405,1.0223051377798076,0.038899844477706745,0.040077573294811715
1765408807.477161,-9.06926975404945,-0.896187210934797,-1.240254596922435,1.0223913747540732,0.039986464964989615,0.04167445300101532
1765408807.477411,-9.05799863633168,-0.905950764087406,-1.234898741861112,1.0226683407405102,0.041165074134901294,0.043281774660911654
1765408807.477661,-9.051558648039755,-0.9157217547202892,-1.2262556253502594,1.0231283879124196,0.04243970773157825,0.04488894084183683
1765408807.477911,-9.050520077136932,-0.9238486198775447,-1.2135551289812225,1.0237454134618156,0.043807381650889494,0.04648995362252443
1765408807.478121,-9.05519094752948,-0.9287401080624031,-1.1962685337975567,1.0244762411488364,0.04525864351807225,0.04808434833071256
1765408807.478371,-9.065580587030862,-0.9290335321111156,-1.1741587132046551,1.0252636775579431,0.04677885194930805,0.04967745753575979
1765408807.478621,-9.081391441357079,-0.9237440355369084,-1.1473028026427659,1.0260410139198328,0.04835002569085792,0.0512799394229581
1765408807.478871,-9.102038628277207,-0.9123775089911872,-1.1160864415542053,1.0267375856210779,0.04995303307946538,0.05290663567651875
1765408807.479126,-9.126693165032377,-0.8949947463633796,-1.0811715931851391,1.027284878891039,0.05156985607378503,0.0545749328056996
1765408807.479376,-9.154342223202747,-0.8722205796319864,-1.0434427625456177,1.0276226104062383,0.053185662125805645,0.05630284928000926
1765408807.479626,-9.183858573896789,-0.845197477378036,-1.0039383494359857,1.0277042106291936,0.05479045108690077,0.05810706232186206
1765408807.479876,-9.214071532652909,-0.8154880101984081,-0.9637745260288875,1.0275012042573264,0.05638010930925859,0.060001056498420205
1765408807.480175,-9.243832795930182,-0.7849349844977728,-0.9240689642105827,1.0270060811078467,0.0579567901315473,0.061993548553358965
1765408807.480425,-9.272072339093082,-0.7554920356320771,-0.8858712082155671,1.0262333765213938,0.05952863094409177,0.06408732272782229
1765408807.480675,-9.29784194954384,-0.7290407257518665,-0.8501049814737777,1.025218828303758,0.06110888959997171,0.0662785880651594
1765408807.480925,-9.320346517112457,-0.7072121172514068,-0.8175251906048197,1.0240166402848436,0.06271462193583491,0.06855693490714726
1765408807.481184,-9.3389650973086,-0.6912306449242729,-0.7886898487473717,1.022695048797192,0.06436502628183327,0.07090591860851223
1765408807.481384,-9.35326464027024,-0.6817954002361692,-0.7639455290318686,1.0213305466369231,0.06607956682250282,0.07330423710156242
1765408807.481584,-9.36300916392574,-0.679009206932049,-0.7434243272456487,1.0200012559583629,0.06787598520782055,0.07572740823542674
1765408807.481784,-9.368165851961127,-0.6823607484656146,-0.7270504243721406,1.0187800362174497,0.06976833372458312,0.07814981177225612
1765408807.481984,-9.368907106891255,-0.6907609616993595,-0.7145553315369679,1.0177279476060248,0.07176519148900085,0.08054694407024768
1765408807.482145,-9.365605196543454,-0.7026318766890352,-0.705502630365587,1.0168886641680606,0.07386822214023572,0.08289772150345055
1765408807.482395,-9.358815657314366,-0.7160428572066112,-0.6993241514033915,1.0162843584398233,0.07607119329911873,0.08518664295826175
1765408807.482645,-9.34924766400385,-0.7288850720223814,-0.6953684035187478,1.0159134718517733,0.07835953572877248,0.08740559152205432
1765408807.482895,-9.337722692567564,-0.7390705660983895,-0.6929587629393611,1.0157506400284526,0.08071049790974673,0.08955504808229822
1765408807.483112,-9.325125164782676,-0.7447385493701746,-0.6914553747596991,1.0157488561215697,0.08309393416457181,0.09164452069431997
1765408807.483362,-9.312350204783018,-0.7444490710970901,-0.6903124643625931,1.0158437405593221,0.08547371667497054,0.09369205847948159
1765408807.483612,-9.300254919214858,-0.7373433721396391,-0.6891221091930886,1.0159595675049578,0.08780968060398814,0.0957228070827559
1765408807.483862,-9.289620025771406,-0.7232514603803375,-0.6876369948345057,1.016016501105852,0.0900599362059184,0.09776666868430009
1765408807.484165,-9.281126323635895,-0.7027315065743343,-0.6857690030587023,1.0159383386321106,0.09218334245086152,0.0998552468415416
1765408807.484415,-9.275345587542128,-0.677032523851478,-0.6835663955708063,1.0156599670942112,0.0941419219435767,0.10201837226090694
1765408807.484665,-9.272740964370351,-0.647980701975197,-0.6811767987397986,1.0151337413593136,0.09590299115221754,0.10428060202537019
1765408807.484915,-9.273670317535357,-0.6177996185153772,-0.6788046634688224,1.0143340991256262,0.09744079864692778,0.10665813649902123
1765408807.485196,-9.278386887231587,-0.5888838468436141,-0.6766714726323362,1.0132599312338975,0.09873752864006957,0.10915657542333086
1765408807.485446,-9.287033847103155,-0.5635522077130715,-0.6749855284667252,1.0119344923922307,0.09978362931053089,0.11176982784397878
1765408807.485696,-9.299632594814726,-0.5438094665974813,-0.6739248855806751,1.0104029220488695,0.10057753183925197,0.11448032686692987
1765408807.485946,-9.316068734560828,-0.5311434597589695,-0.6736319681863958,1.008727701833403,0.10112490426865925,0.11726052300403449
1765408807.486204,-9.336083094488421,-0.5263792810301826,-0.6742141583962721,1.0069825727484096,0.10143761741980814,0.12007546734925613
1765408807.486454,-9.359275588712546,-0.5296043795009552,-0.6757438098628666,1.005245557528051,0.1015325897025669,0.12288616270796737
1765408807.486704,-9.385126542604509,-0.5401695113435729,-0.6782537268548462,1.0035917760930815,0.10143063785703285,0.12565327719979572
1765408807.486954,-9.413034658240855,-0.5567619682579205,-0.681728068404189,1.0020867099526447,0.10115540204153857,0.12834080290346275
1765408807.487163,-9.442365763703418,-0.5775404933025611,-0.6860917577927472,1.0007804851305926,0.10073234024230855,0.13091929899193858
1765408807.487413,-9.472504218495589,-0.6003162010170399,-0.6912024823201548,0.9997036276853597,0.10018772154193181,0.13336845100739236
1765408807.487663,-9.50289973915139,-0.6227607651539285,-0.6968482555250114,0.9988646152955529,0.09954753555631873,0.13567877222089264
1765408807.487913,-9.533104668678343,-0.6426221967448082,-0.702751880579256,0.9982494058758794,0.09883629380863967,0.13785235815455352
1765408807.488155,-9.562798597184315,-0.6579293652658613,-0.7085829034085823,0.997822971132999,0.09807578583285662,0.13990268071017437
1765408807.488405,-9.591799108037037,-0.6671682617005302,-0.7139768857823272,0.9975327033787295,0.09728391210508726,0.14185347163691517
1765408807.488655,-9.620060301279405,-0.6694153970733759,-0.718559527128265,0.9973134036757162,0.09647373332389513,0.14373679390741326
1765408807.488905,-9.647663592674036,-0.6644168013296191,-0.7219704841345329,0.9970934085646294,0.09565286597567692,0.14559043415115305
1765408807.489123,-9.67480563426414,-0.652605053943401,-0.7238816308441708,0.9968012909133044,0.09482331792983723,0.1474547769487029
1765408807.489373,-9.701785508121208,-0.635051642322627,-0.7240074483747717,0.9963725028028163,0.09398178684006421,0.1493693602001939
1765408807.489623,-9.728989960121377,-0.6133577396396042,-0.7221084317600046,0.995755329757254,0.09312035765519262,0.15136937231299893
1765408807.489873,-9.756873807768365,-0.5894931042217362,-0.7179896557485304,0.9949155945466504,0.09222747281114171,0.15348241898636905
1765408807.49016,-9.785932929602874,-0.5655992343281806,-0.7114968146322022,0.9938396755189963,0.09128902692190416,0.1557259149725677
1765408807.49036,-9.81666818074127,-0.5437773988941961,-0.7025128897461154,0.9925355759119959,0.09028944562140914,0.15810541099470196
1765408807.49056,-9.849539533315296,-0.5258835168007905,-0.6909599685394395,0.9910319769496412,0.08921263815356184,0.1606140598177975
1765408807.49076,-9.88491118486168,-0.5133503901398516,-0.6768108380724615,0.9893754034026672,0.08804277090472012,0.1632333000308634
1765408807.49096,-9.92299117843256,-0.5070546322035496,-0.6601121017346498,0.9876258045188949,0.08676488345769838,0.16593471702221435
1765408807.491151,-9.963773248588673,-0.5072413927493729,-0.6410147770690082,0.9858509940924115,0.08536542236549709,0.1686829207283538
1765408807.491401,-10.006992196960793,-0.5135144568931683,-0.6198025439277537,0.9841204932070368,0.08383277218309795,0.17143914888356596
1765408807.491651,-10.052104031327477,-0.5248922237706186,-0.5969063076367928,0.9824993677361433,0.0821578268775119,0.1741651830745615
1765408807.491901,-10.098297230128418,-0.5399221065828186,-0.5728978855435644,0.9810426405388764,0.08033459292450211,0.17682710003334973
1765408807.492203,-10.144534383822073,-0.5568386637202547,-0.5484620285882739,0.9797907838488235,0.07836076390447734,0.17939840899056192
1765408807.492453,-10.189618018534548,-0.5737459975471061,-0.5243503903922523,0.9787666683000326,0.07623816890494017,0.18186224204522605
1765408807.492703,-10.232272121400182,-0.5888035355443909,-0.5013227919594582,0.9779741772597301,0.0739729909388893,0.18421242561053022
1765408807.492953,-10.271230478180811,-0.6003959802384707,-0.4800822536052067,0.9773985137334021,0.07157567531777836,0.18645341735990992
1765408807.493204,-10.305323047214719,-0.6072718442017722,-0.4612117092358729,0.9770080611350559,0.06906047972768398,0.18859921386101072
1765408807.493454,-10.333552341964344,-0.6086393656497155,-0.44512097468664136,0.9767575283869673,0.06644465359567,0.19067141811570923
1765408807.493704,-10.355153795140861,-0.6042133802855438,-0.43201123678751635,0.9765920198196594,0.06374729399333376,0.19269672167441868
1765408807.493954,-10.36963722184993,-0.5942122454287285,-0.42186104415000797,0.9764516231027439,0.060988008400315645,0.19470410659182885
1765408807.494127,-10.376809629823446,-0.5793097615442538,-0.41443366759776595,0.9762761081298722,0.058185584307260715,0.19672207989773094
1765408807.494377,-10.37678097213733,-0.5605515114758305,-0.40930276880872035,0.9760093720647521,0.055356883515916624,0.19877619332121216
1765408807.494627,-10.369953186399382,-0.5392467669723291,-0.405892945360183,0.9756033299942265,0.05251613129964019,0.2008870003033345
1765408807.494877,-10.3569907224397,-0.5168465971458677,-0.40353282724234807,0.9750210153432809,0.04967466776987771,0.20306852183694485
1765408807.495147,-10.338770834802544,-0.4948176767627057,-0.401518273844942,0.974238715733385,0.046841105880510214,0.2053272650025421
1765408807.495397,-10.31631537764559,-0.47452060267277274,-0.3991806693573731,0.9732470363270967,0.0440217495252688,0.2076618423512557
1765408807.495647,-10.290710506912786,-0.4571013528735694,-0.39595217896069645,0.972050856589595,0.04122110210102538,0.21006323773841026
1765408807.495897,-10.263023401547159,-0.44340433901163695,-0.39141901719782407,0.9706682242166392,0.038442331059867725,0.2125157350911296
1765408807.496195,-10.234224879652258,-0.4339144973896422,-0.3853562169439093,0.9691283098483704,0.035687607780327285,0.2149984710947182
1765408807.496445,-10.20512514865306,-0.42873349055451526,-0.3777412504403584,0.9674686255975286,0.03295829158059712,0.217487500613202
1765408807.496695,-10.176328519202636,-0.42759168387478524,-0.36874683355884647,0.9657317771945586,0.03025497984390008,0.21995819003067602
1765408807.496945,-10.148211543019139,-0.4298939133497072,-0.35871493354913325,0.9639620534728914,0.027577505926081675,0.22238769224461793
1765408807.498757,-10.120926769087674,-0.4347934530484625,-0.3481152707570563,0.9622021458607647,0.024925005694564434,0.22475721832855947
1765408807.499007,-10.094431584151312,-0.4412849953116407,-0.3374923877538362,0.9604902425173324,0.022296162817480817,0.2270538234514359
1765408807.499257,-10.068539699110131,-0.448304686694423,-0.3274048564524022,0.958857675350369,0.01968968489597784,0.22927148899024508
1765408807.499507,-10.042991543242191,-0.45482485570063014,-0.3183590610104248,0.9573272251732073,0.01710498385051258,0.23141140135419552
1765408807.498846,-10.017537407331893,-0.45993361072149175,-0.31074038048322017,0.9559121166452276,0.014542957901197131,0.23348145972929632
1765408807.499096,-9.992023106052528,-0.4628937954874068,-0.30474759286811287,0.954615673047522,0.012006710320477449,0.23549515015380781
1765408807.499346,-9.966464345667575,-0.46318005682914226,-0.30034025418674737,0.9534315676632172,0.009502002511549378,0.23746998654371723
1765408807.499596,-9.941095865675791,-0.4604958387185721,-0.29721040960829065,0.9523446071310815,0.007037251743201087,0.23942573676796913
1765408807.49926,-9.916385620858474,-0.45477352335437315,-0.29478744163706716,0.9513319978348809,0.0046229799438513375,0.24138262806172608
1765408807.49951,-9.893010870027616,-0.4461608352759688,-0.2922793001711069,0.9503650552726842,0.00227078889940666,0.24335968588040657
1765408807.49976,-9.871799783041402,-0.43499593787572566,-0.2887469202390175,0.9494112993388076,-7.906075274728137e-06,0.24537333229885444
1765408807.50001,-9.853648332978356,-0.42177360649703555,-0.28320221274777946,0.9484368348275203,-0.002203102574917576,0.24743635127212324
1765408807.500222,-9.839427205174593,-0.4071056879716888,-0.27471451894219284,0.9474088669181733,-0.0043071803879339305,0.2495572910409931
1765408807.500472,-9.829895216840258,-0.3916796882828218,-0.2625082497673112,0.9462981711506179,-0.0063154975528841055,0.25174031025793064
1765408807.500722,-9.82563269107182,-0.3762187858590537,-0.24603723047423945,0.9450813347680024,-0.008226578396872391,0.2539854084247632
1765408807.500972,-9.827001691192157,-0.36144511475134555,-0.22502743651751417,0.9437426018346233,-0.010041925141721156,0.2562889395474077
1765408807.501168,-9.834133257368274,-0.34804674437670013,-0.19948617361069257,0.9422751783456409,-0.01176554620716347,0.2586442947642171
1765408807.501418,-9.84693690900043,-0.3366478798065696,-0.16968076813667465,0.9406818860289986,-0.013403334342767787,0.26104264563488566
1765408807.501668,-9.865124827567989,-0.3277813925930837,-0.13609368551479964,0.9389750987880608,-0.014962437666707205,0.2634736571961315
1765408807.501918,-9.88824208569003,-0.3218628720022718,-0.09936372991024083,0.937175951405156,-0.016450756380118586,0.2659261035998608
1765408807.502189,-9.915695183159261,-0.31916585577190315,-0.06022405452074795,0.9353128677776363,-0.01787666398679563,0.26838834381121685
1765408807.502439,-9.946773823991128,-0.319798364602976,-0.01944680538245027,0.9334195069504382,-0.01924898107557455,0.2708486413081335
1765408807.502689,-9.9806646039807,-0.3236813572074737,0.022198571364502685,0.9315322627732683,-0.020577136998275136,0.2732953481974393
1765408807.502939,-10.016459110202225,-0.33053099917205103,0.06397043654362779,0.929687475798911,-0.021871383869882736,0.27571701912702223
1765408807.50317,-10.053161696849783,-0.339848913717257,0.10516465908324281,0.9279185339331713,-0.023142909350475877,0.278102549232143
1765408807.50337,-10.089702902627169,-0.35092650218245197,0.14511287099032977,0.9262530643538949,-0.02440372437501339,0.28044141524578897
1765408807.50357,-10.124963092469274,-0.3628691557840497,0.18317450179370934,0.9247104505429956,-0.025666255461973396,0.2827240433926483
1765408807.50377,-10.15780842415752,-0.37464330221184894,0.21872819016557846,0.9232999244299646,-0.026942632213020155,0.2849422685027476
1765408807.50397,-10.187138678217732,-0.3851450382827726,0.25116798572911087,0.9220194653031404,-0.02824372309326381,0.2870898196115748
1765408807.504174,-10.211944152870679,-0.393285271430849,0.27990873831518187,0.920855679679461,-0.029578028212244038,0.2891627698053467
1765408807.504424,-10.23136658059061,-0.39808361023718947,0.3044028617962966,0.91978474663193,-0.030950576309817894,0.2911599002881009
1765408807.504674,-10.244757041318932,-0.3987615571059248,0.32416752079764677,0.9187744021565211,-0.032361991392655005,0.293082933636789
1765408807.504924,-10.251722820740357,-0.3948246165246631,0.338818270322603,0.9177868171551324,-0.03380789132615646,0.29493659311503445
1765408807.505238,-10.252155809108135,-0.3861230507454972,0.3481034201186707,0.9167821133358361,-0.03527874837735325,0.2967284605023203
1765408807.505488,-10.246237560103012,-0.3728828774746463,0.3519333934729765,0.915722178764,-0.036760276659882095,0.2984686401640284
1765408807.505738,-10.234420077042385,-0.35570247428229373,0.35040085184611897,0.914574403865856,-0.038234328661682936,0.30016927236608154
1765408807.505988,-10.217385745640899,-0.3355148468129449,0.34378952214444586,0.9133149640503325,-0.039680208618213725,0.30184394520282026
1765408807.506176,-10.19599320225349,-0.3135196174359365,0.33257132695429514,0.9119313260122118,-0.04107626187448728,0.3035070270984318
1765408807.506426,-10.171217210393396,-0.29109101349348615,0.3173919065287447,0.9104237439394447,-0.04240157581064398,0.3051729064949374
1765408807.506676,-10.144089830609213,-0.2696687455646777,0.299044577750843,0.9088056175242594,-0.04363761869355159,0.30685511459466486
1765408807.506926,-10.115648332077527,-0.25063884899917616,0.2784335141743303,0.9071026778495626,-0.04476964756527439,0.3085653377270987
1765408807.507117,-10.086893345847596,-0.23521238915921508,0.2565287679671686,0.9053510407052051,-0.0457877503744222,0.31031238753512624
1765408807.507367,-10.058758893862395,-0.2243112992714415,0.23431763343048526,0.9035942355435997,-0.046687454972756726,0.31210125484800083
1765408807.507617,-10.03209393829971,-0.21847148228377605,0.2127575406920633,0.9018793977473736,-0.0474699120547524,0.31393239603194306
1765408807.507867,-10.00765299769605,-0.21777284751908335,0.19273471477330542,0.9002528956434935,-0.048141710485236626,0.3158013871071195
1765408807.508203,-9.986091769579346,-0.22180424396760898,0.17503085736526336,0.8987557325148502,-0.04871440537922683,0.3176990471612531
1765408807.508453,-9.967963473855505,-0.22966894482598063,0.1602984785735628,0.8974191079852997,-0.049203838953168794,0.31961208898645743
1765408807.508703,-9.953712970104208,-0.24003391485118544,0.14904493219577813,0.8962605437509115,-0.04962931930328019,0.321524299070991
1765408807.508953,-9.943667708746029,-0.2512233040751951,0.14162489329900882,0.895280972404847,-0.050012704478675694,0.3234181715176159
1765408807.509129,-9.938026334552132,-0.2613526874707734,0.13824017328658686,0.8944631458906575,-0.050377427743946546,0.3252768220184661
1765408807.509379,-9.936847190400615,-0.26849526762888654,0.13894507235865955,0.893771636407638,-0.05074749253861306,0.32708591667303477
1765408807.509629,-9.940040175852733,-0.2708655686547664,0.1436558676075289,0.8931545737325135,-0.05114645718665548,0.32883530522872123
1765408807.509879,-9.94736591478797,-0.26700167198297986,0.1521640487935759,0.8925470895215291,-0.05159642152391778,0.33052006817682056
1765408807.510104,-9.95844542814661,-0.2559249400784512,0.16415336023510788,0.8918762422787937,-0.052117026500427696,0.3321407677792827
1765408807.510354,-9.972781739875304,-0.23725703425776187,0.17922040991091523,0.8910670139073611,-0.05272448897128924,0.33370281959147613
1765408807.510604,-9.989792803666166,-0.21127816786169934,0.19689815435589633,0.8900488286326598,-0.05343071659778222,0.33521504670107655
1765408807.510854,-10.008853184487416,-0.17891756092449412,0.216680985575666,0.8887619609881955,-0.05424257218019004,0.3366876057311194
1765408807.511112,-10.029340194242783,-0.1416753790630922,0.23804925246163397,0.8871631817285683,-0.05516136874193202,0.33812955265581995
1765408807.511362,-10.050679249230354,-0.10148303752801009,0.26049063965688757,0.8852300448048014,-0.056182666624329,0.3395463473434935
1765408807.511612,-10.07238371822552,-0.06051478938106371,0.2835169811119736,0.882963338517948,-0.05729641282831616,0.3409375988142053
1765408807.511862,-10.094086052266148,-0.020968518534870403,0.3066773686682405,0.8803873967692099,-0.05848742262287596,0.3422953415329321
1765408807.512169,-10.115558127103856,0.01516205906731678,0.3295698566077848,0.8775481798643006,-0.059736169552547444,0.343603096702777
1765408807.512419,-10.136718578757788,0.046299118851085744,0.35185323959429865,0.8745092702186574,-0.0610198340591671,0.34483589214150434
1765408807.512669,-10.15762424618131,0.0714528062229556,0.3732580274792673,0.8713461529358576,-0.06231356429071693,0.3459612900115502
1765408807.512919,-10.178443381047227,0.09033527355370803,0.3935938331386375,0.8681393247740203,-0.0635919105075598,0.3469413360754136
1765408807.51313,-10.19941083873619,0.10340595259955529,0.41275006712467116,0.8649668729816302,-0.06483038261369482,0.34773524142082196
1765408807.51338,-10.22076917522938,0.111845010552702,0.430687938596731,0.8618971895018563,-0.06600704017303627,0.3483025565342818
1765408807.51363,-10.242702966136031,0.11745813405996168,0.44742386701017717,0.8589824531994503,-0.06710397850967054,0.3486065790407218
1765408807.51388,-10.265275713857115,0.12252079412439928,0.46300702438924346,0.8562534373504984,-0.06810855590985092,0.3486177195191902
1765408807.514107,-10.288378952362734,0.1295748877169908,0.4774957135114064,0.8537160876926865,-0.06901422677062172,0.3483165283683433
1765408807.514357,-10.31170146978629,0.14119513100253794,0.49093736576350633,0.8513501730020773,-0.06982089299860475,0.3476960842401527
1765408807.514607,-10.334723279168822,0.1597457581708505,0.5033551170053947,0.8491101436828125,-0.07053474629391919,0.34676348159955983
1765408807.514857,-10.356734960102198,0.18714917795445743,0.5147415053313897,0.8469281538491338,-0.07116763203053607,0.34554022398013856
1765408807.515101,-10.376879230567587,0.22468751202319967,0.5250578491957875,0.8447190210885998,-0.07173600451029506,0.34406141216427566
1765408807.515351,-10.394208698863558,0.27285600733352566,0.5342364766536977,0.8423867302528247,-0.07225955721807613,0.3423737099447397
1765408807.515601,-10.40775226640821,0.3312842254593405,0.5421827155630247,0.8398319451559303,-0.07275961233585689,0.34053218185940504
1765408807.515851,-10.416583223893193,0.398736080290373,0.548775248836075,0.8369598846040107,-0.07325735946692004,0.33859622529026007
1765408807.516142,-10.419884382672487,0.4731926993242388,0.5538663137527585,0.833687860834506,-0.07377205361511427,0.3366249452720434
1765408807.516392,-10.417007925525196,0.5520130151643645,0.5572849547247137,0.829951787145354,-0.07431931063873205,0.33467241561784267
1765408807.516642,-10.407528476818818,0.6321573184815491,0.5588459723467968,0.8257110493943922,-0.07490965426032566,0.33278330554507735
1765408807.516892,-10.391287226223822,0.7104508596056781,0.5583654794748072,0.8209512994569802,-0.07554745258808225,0.3309893091378901
1765408807.517148,-10.368423963494987,0.7838601018325476,0.5556824992682099,0.8156849440863341,-0.07623033536811678,0.32930670206178325
1765408807.517398,-10.3393935438354,0.8497543085016913,0.5506849935028122,0.8099493347349893,-0.076949130618871,0.32773520340948736
1765408807.517648,-10.30496387160896,0.9061287107477047,0.5433377293155961,0.8038028813516638,-0.0776883270052762,0.3262581915798434
1765408807.517898,-10.266193757266421,0.9517704985586963,0.5337084384488521,0.7973194941130886,-0.07842705794993274,0.32484423451324024
1765408807.518164,-10.22439055959927,0.9863542865420454,0.5219880231538145,0.7905818861521241,-0.07914058838764775,0.3234498196902675
1765408807.518414,-10.181049099937356,1.0104600168912805,0.5085005329785628,0.783674341210467,-0.07980223672270577,0.32202307024196936
1765408807.518664,-10.13777494725723,1.0255138140600935,0.49369969756682275,0.7766755652769786,-0.08038558744381907,0.32050811789530936
1765408807.518914,-10.096196957934067,1.0336599752937201,0.4781509307291377,0.7696522011600204,-0.08086678385283405,0.31884972161601977
1765408807.519141,-10.057875841830645,1.0375782340467037,0.4625004330212231,0.7626534899480318,-0.08122667216778978,0.316997709676014
1765408807.519391,-10.024216953841421,1.040263621521748,0.4474355521883163,0.7557074328269316,-0.0814525981421333,0.3149108744647894
1765408807.519641,-9.996395561394104,1.044786930828838,0.4336419222801148,0.7488186762864556,-0.08153970785794007,0.312560031759098
1765408807.519891,-9.975301066246162,1.0540530841915852,0.4217625184242582,0.7419682332752584,-0.08149165227462747,0.30993004403179664
1765408807.520093,-9.961503730617457,1.0705737764169259,0.41236237372784856,0.7351150520814559,-0.08132064103423042,0.30702069268297283
1765408807.520343,-9.955244599204772,1.0962699250409345,0.40590169643785357,0.7281993347014767,-0.08104684991441943,0.30384637155982225
1765408807.520593,-9.956447016679212,1.1323180451640698,0.4027195930936443,0.7211473836764909,-0.08069725904811359,0.3004346666202222
1765408807.520843,-9.964745906611784,1.1790520276696164,0.40302907009132954,0.7138776331936506,-0.0803040640645966,0.2968239735914725
1765408807.521106,-9.979528713188603,1.2359280338164265,0.40692086673086875,0.7063074132090836,-0.0799028419165809,0.29306037233543564
1765408807.521356,-9.999980988083939,1.3015557918260705,0.4143710423789169,0.6983599195018065,-0.07953066401599329,0.289194021505005
1765408807.521606,-10.025131310797217,1.373794611550461,0.42524764930523684,0.6899708317652561,-0.0792243197853275,0.28527536967195966
1765408807.521856,-10.05389351360596,1.4499068287542145,0.43931488326940804,0.6810940444497422,-0.07901873301357318,0.2813515014339025
1765408807.522192,-10.085106566224251,1.5267556395185764,0.45623601007666265,0.6717060473526449,-0.07894555752306011,0.27746293121836185
1765408807.522442,-10.11757301998196,1.6010297458814986,0.4755774394150772,0.6618086038614688,-0.07903189695954346,0.2736411021379316
1765408807.522692,-10.150096681283259,1.6694753010976633,0.49681616981631954,0.6514295169585638,-0.07929912678343484,0.26990674683901955
1765408807.522942,-10.181519990546617,1.7291166086389287,0.5193523235649344,0.6406214408109898,-0.07976185007526532,0.26626915594168754
1765408807.52318,-10.210760999101325,1.777449902108553,0.5425275049302793,0.6294588725512704,-0.08042703589884248,0.2627263126474619
1765408807.52343,-10.236848608361932,1.812598002115228,0.5656481817129574,0.6180336157082484,-0.08129337501417641,0.2592657988160876
1765408807.52368,-10.2589537594886,1.833417156531714,0.5880120856355422,0.6064491161035586,-0.08235088068756752,0.2558663428781376
1765408807.52393,-10.276414553287283,1.8395512239631875,0.6089357289744164,0.5948141237770267,-0.08358077329345182,0.2524998487788015
1765408807.52419,-10.288754652881755,1.8314328280238,0.6277823764123074,0.5832361425841491,-0.0849556995674,0.2491337232285729
1765408807.52444,-10.295695644159716,1.8102356752950999,0.643990955496549,0.57181510884625,-0.08644033923430411,0.24573331862145692
1765408807.52469,-10.297164368831297,1.7777858501278594,0.6571062355144947,0.5606376971131676,-0.08799244148098957,0.24226432934114747
1765408807.52494,-10.293295353609842,1.7364418773251533,0.6668088495994999,0.5497725849523368,-0.08956430967393281,0.2386950082383114
1765408807.52519,-10.28442676758159,1.6889537393666845,0.6729412266627937,0.5392669256714505,-0.09110471760023882,0.23499810237858143
1765408807.52544,-10.271087062990366,1.6383103105170354,0.675523970028627,0.5291441849838852,-0.092561199212322,0.23115244207466432
1765408807.52569,-10.253970024545044,1.58758324226987,0.6747581684015548,0.5194034001534006,-0.09388260494950496,0.22714415013337272
1765408807.52594,-10.233898595637694,1.5397736198384475,0.6710123657424631,0.5100198297101431,-0.09502176394971555,0.22296745971202353
1765408807.526181,-10.21178108237729,1.4976663646460124,0.664796538047438,0.5009468914723578,-0.09593805038158978,0.21862512988236688
1765408807.526431,-10.188565258225722,1.4636969953547723,0.6567275461397173,0.4921192364704167,-0.09659964107904044,0.2141284311402625
1765408807.526681,-10.165195652785027,1.4398358383118692,0.6474907440141593,0.48345676605503024,-0.09698527228180742,0.20949666220976768
1765408807.526931,-10.142577333109665,1.4274951751511562,0.6378014158545664,0.4748693617650452,-0.09708534879400697,0.20475617808487648
1765408807.527147,-10.121546923665708,1.4274644203638291,0.6283682555039897,0.466262063424918,-0.0969023236648941,0.19993895285985488
1765408807.527347,-10.102849669391524,1.4398773847168045,0.6198597072411152,0.45754040699029114,-0.09645034172448112,0.19508074684002477
1765408807.527547,-10.087120660516817,1.4642143954309794,0.6128730706336112,0.4486156267929864,-0.09575421043868008,0.19021898629544035
1765408807.527747,-10.07486878232744,1.4993403865589259,0.607906174839579,0.43940943723336123,-0.09484781165933023,0.18539050031859844
1765408807.527947,-10.066463027225925,1.5435776813157176,0.6053322518558001,0.42985813102079623,-0.09377209265946782,0.18062928769433986
1765408807.528185,-10.062121954439284,1.5948092113692154,0.6053799320609113,0.41991576508389555,-0.09257278160100109,0.17596449275219267
1765408807.528435,-10.06190773390494,1.650605141901288,0.6081210758096066,0.40955625996993633,-0.09129797412298706,0.17141874685522607
1765408807.528685,-10.065725976805966,1.7083641013798445,0.6134686589979141,0.398774315884892,-0.08999573929960003,0.16700699058497
1765408807.528935,-10.073331540200892,1.7654595842350116,0.6211851375819313,0.38758513487737106,-0.08871188865938115,0.16273584595618246
1765408807.529193,-10.084339334383465,1.8193821093117215,0.6308993853739748,0.37602301852696823,-0.0874880332994121,0.15860356748202817
1765408807.529443,-10.098238728079082,1.8678680626313504,0.6421288064193,0.36413898050984733,-0.08636001808828431,0.15460056294815241
1765408807.529693,-10.114410932019926,1.9090071472651184,0.6543038460735661,0.35199757394614706,-0.08535677138623925,0.1507104307943242
1765408807.529943,-10.132150229503853,1.941322421876461,0.6667945327494661,0.3396731751807372,-0.08449955747137862,0.14691141031596122
1765408807.530132,-10.150690716145057,1.963819841960285,0.6789405872733875,0.3272459778309106,-0.0838015881184801,0.143178097390793
1765408807.530382,-10.16923927431718,1.9760071844348908,0.6900860560695852,0.3147979378253232,-0.08326795058926496,0.139483263231406
1765408807.530632,-10.1870133710631,1.977884301834468,0.6996170426110405,0.30240888753722034,-0.08289583367290987,0.13579963550596633
1765408807.530882,-10.203280577232462,1.9699075512006077,0.7069993334586484,0.2901530142344221,-0.0826750609364424,0.13210154123857804
1765408807.53217,-10.21739639589541,1.9529316866246804,0.7118125941136901,0.27809587085593623,-0.0825889478845953,0.1283663387126827
1765408807.53242,-10.228837424395365,1.928133395927948,0.7137782530078972,0.2662920477229809,-0.08261547636260162,0.12457557490408598
1765408807.53267,-10.237227155224367,1.8969219838801539,0.7127782981249083,0.2547835812237826,-0.08272873919007136,0.12071581763845497
1765408807.53292,-10.242352075462293,1.8608436057708364,0.708862718698506,0.24359911670913914,-0.08290057507594625,0.11677914220683784
1765408807.53222,-10.24416679512145,1.8214853778586868,0.7022449405310855,0.2327537873466073,-0.08310229637733044,0.11276328790209476
1765408807.53247,-10.242788403671241,1.7803849418894955,0.6932864048748472,0.22224972734318113,-0.08330640306954441,0.10867152103980354
1765408807.53272,-10.238481286238041,1.7389502276799866,0.6824721915261873,0.2120771140458166,-0.08348817334281992,0.1045122443949575
1765408807.53297,-10.231634157025638,1.698393346097252,0.6703795757350675,0.20221563085220023,-0.08362702910493162,0.10029839092551829
1765408807.533143,-10.222731597619905,1.6596814475369472,0.657641755168517,0.19263625432234047,-0.08370759076043395,0.09604664288013817
1765408807.533393,-10.212322910799596,1.6235059418160873,0.6449098159185888,0.1833032824592862,-0.0837203524946018,0.09177652426886071
1765408807.533643,-10.200991052099655,1.5902701103348922,0.6328163763142978,0.17417652847171347,-0.08366193097262045,0.08750941720046314
1765408807.533893,-10.189323592856798,1.5600942223396146,0.6219436224122388,0.16521360299079874,-0.08353487934709584,0.08326754955153336
1765408807.534155,-10.177886555155514,1.5328366596793292,0.6127970133065815,0.15637219975944752,-0.08334711052445627,0.0790729995512775
1765408807.534405,-10.167200995116401,1.5081288873625927,0.6057845328901754,0.14761229019395455,-0.08311101324057948,0.07494676413748619
1765408807.534655,-10.157721539708035,1.485421365790676,0.6012003883157506,0.13889812620038633,-0.08284235509513475,0.07090793508511295
1765408807.534905,-10.14981592001542,1.4640370176759845,0.599211713364548,0.13019995329264455,-0.08255905940071609,0.06697301672868194
1765408807.535105,-10.14374519878742,1.4432287016711862,0.5998473899392693,0.12149535270071879,-0.08227993463915398,0.0631554106516099
1765408807.535305,-10.139645619216859,1.422236909143849,0.6029893310766773,0.11277016267890606,-0.08202342623046703,0.05946509291699864
1765408807.535505,-10.137513922050857,1.4003434195383742,0.6083675303792984,0.10401896840521667,-0.08180644224494574,0.05590850809192913
1765408807.535705,-10.137198031248534,1.3769165309183857,0.615560228271277,0.09524518697251179,-0.08164328039875375,0.05248868648755609
1765408807.535905,-10.138394622540998,1.3514445044424745,0.6240001707984508,0.08646080281992784,-0.08154466323885023,0.04920556083271454
1765408807.536187,-10.14065500166069,1.3235558781795682,0.6329880108087297,0.07768582494790426,-0.08151687608592374,0.04605643675377351
1765408807.536437,-10.143400894192988,1.2930272014696393,0.6417143426285573,0.06894753735997804,-0.08156099686826233,0.04303656947703276
1765408807.536687,-10.145951330262656,1.2597795877563227,0.6492915799428451,0.06027960247793949,-0.08167221151192255,0.0401398075075798
1765408807.536937,-10.147560207488143,1.2238654628036096,0.6547951596082975,0.0517210634530877,-0.0818392290413247,0.03735926395723156
1765408807.537142,-10.147461933513318,1.1854469276320618,0.6573112100345689,0.04331528196995107,-0.08204384106232998,0.03468795959722422
1765408807.537392,-10.14492106116359,1.1447678197831148,0.6559865377258479,0.0351088454121637,-0.08226069116156287,0.03211936474890834
1765408807.537892,-10.139281638532744,1.1021224691234994,0.6500771742483535,0.027150482165443173,-0.08245732050868695,0.029647779341316766
1765408807.538132,-10.130012614597726,1.0578245439692928,0.6389928019349405,0.019490032784125765,-0.08259454770437993,0.02726853921973489
1765408807.538332,-10.11674635219567,1.0121789602068105,0.6223350253172981,0.012177525565553095,-0.08262723590997058,0.02497809077892491
1765408807.538532,-10.099307950414405,0.965458942204465,0.5999276677312156,0.005262385283365511,-0.0825054940832214,0.02277399553036772
1765408807.538732,-10.077733915244027,0.9178896122447663,0.571837611615862,-0.0012072368613092912,-0.08217634012885805,0.020654903105248215
1765408807.538932,-10.052279781117731,0.8696392396638581,0.5383852633983297,-0.007185072024986832,-0.08158581631562725,0.018620493112772238
1765408807.539137,-10.023417204589872,0.8208191245720835,0.5001442008641673,-0.012627376884944903,-0.08068149351672824,0.016671367962516826
1765408807.539387,-9.991821409318808,0.771492373485054,0.4579298594619633,-0.017493714536432364,-0.07941524197327947,0.014808891473437134
1765408807.539637,-9.95834961416207,0.7216904106208092,0.41277732600275563,-0.021747953406707533,-0.07774610256261594,0.013034993462625872
1765408807.539887,-9.924010589306437,0.6714345681901214,0.3659083992673276,-0.02535952088683364,-0.07564307968935337,0.011351971758413276
1765408807.540155,-9.889925272359758,0.620759314514443,0.3186880831118825,-0.028304897527893613,-0.07308768870794669,0.009762311038919511
1765408807.540355,-9.8572787414555,0.5697339429248012,0.2725708980632796,-0.030569287276352986,-0.07007610253286442,0.008268516481979456
1765408807.540555,-9.827264687011791,0.5184805248683572,0.22903807114070143,-0.032148352116593636,-0.06662073784628136,0.006872949960825735
1765408807.540755,-9.801024536066837,0.46718693880625706,0.189527728256158,-0.033049857581638,-0.06275111382637724,0.005577665694701369
1765408807.540955,-9.779584374710035,0.41611429173495673,0.15536147930990185,-0.03329504360518222,-0.05851383421804035,0.004384261207082598
1765408807.541189,-9.763793733260277,0.36559806400501277,0.1276720246938062,-0.03291952175498711,-0.053971600954083966,0.0032937696805738106
1765408807.541439,-9.754270939371118,0.3160423250909242,0.10733721725642704,-0.03197351343844106,-0.049201251206010876,0.002306611107682867
1765408807.541689,-9.751359703720633,0.2679068202341576,0.09492591852583135,-0.03052128706046932,-0.044290894776801634,0.001422599668494996
1765408807.541939,-9.755100752344092,0.22168752894685068,0.09065998447246452,-0.028639721631854343,-0.039336299011105025,0.0006409887408023905
1765408807.542142,-9.765221134744456,0.17789204855224366,0.09439551058064363,-0.026416010118550406,-0.03443672032873053,-3.947111854175484e-05
1765408807.542342,-9.781142874689651,0.13701165523339204,0.1056257659898302,-0.02394460271237065,-0.029690418153433148,-0.0006204855411523749
1765408807.542542,-9.802011735851856,0.09949221133261243,0.12350769081817575,-0.021323565100879318,-0.025190115042425007,-0.0011042009089359851
1765408807.542742,-9.826745371701046,0.06570629775158154,0.14691217684024965,-0.018650586367468146,-0.021018691595358022,-0.0014932306037775379
1765408807.542942,-9.854097886847473,0.03592902369159659,0.17449513522873217,-0.01601891446523199,-0.017245419811201278,-0.0017907210870434396
1765408807.543103,-9.882735690163868,0.01031982621752848,0.20478291732947526,-0.013513514115614378,-0.013923022473539992,-0.0020004447905891324
1765408807.543303,-9.91131838924465,-0.011087863641127712,0.2362638884850194,-0.011207721559233426,-0.011085778920227909,-0.002126899344000209
1765408807.543503,-9.938578381455,-0.028387985227786756,0.2674782408406033,-0.00916061847304576,-0.008748785197659852,-0.0021753898486055016
1765408807.543703,-9.963393091634455,-0.04179415879111583,0.29709923647426373,-0.00741528014812917,-0.006908353978209065,-0.0021520733653299937
1765408807.543903,-9.984844227186194,-0.05162388292983239,0.3240000723335486,-0.005997979169710849,-0.0055434430345384445,-0.002063951517790421
1765408807.544158,-10.002259437172738,-0.05827636444628599,0.34730190319279736,-0.00491834643156015,-0.004617940093056928,-0.0019188055819337074
1765408807.544358,-10.015233757240408,-0.06220624366671774,0.3664008299931521,-0.0041704139568703585,-0.004083593239455837,-0.0017250770372840133
1765408807.544558,-10.023630744937945,-0.06389571580871942,0.38097422434810724,-0.003734401814532125,-0.003883350273741872,-0.0014917043333853455
1765408807.544758,-10.027565364848742,-0.06382745221532221,0.3909685079844356,-0.0035790712435844764,-0.003954863094706843,-0.0012279311032298047
1765408807.544958,-10.027372044505686,-0.06246027350093745,0.39657134567673646,-0.0036644466524115406,-0.004233929529567497,-0.0009431001659676519
1765408807.545141,-10.023562082139726,-0.06020887284486408,0.3981718809206837,-0.0039447080761615665,-0.004657676634787749,-0.0006464430897030486
1765408807.545341,-10.016774921282355,-0.05742826361264719,0.3963133518961603,-0.0043710714918991575,-0.005167323819373461,-0.000346870544310028
1765408807.545541,-10.007727590484746,-0.054403174883911304,0.39164258425125187,-0.004894502566056512,-0.005710399924492156,-5.2765793112160576e-05
1765408807.545741,-9.997165840218324,-0.05134238948198549,0.38486016941240425,-0.0054681421643708724,-0.006242333821258101,0.00022821787343940917
1765408807.545941,-9.985819579344087,-0.04837799734124851,0.3766741310992697,-0.006049353910665809,-0.006727395257547481,0.000489354062353933
1765408807.546144,-9.974364499738067,-0.04556958828558086,0.36775915815759636,-0.006601334662716981,-0.0071390203366021475,0.000725027224146621
1765408807.546344,-9.963391258487746,-0.042913291841825955,0.35872300123417733,-0.0070942578808909475,-0.007459599596707258,0.0009308871352577464
1765408807.546544,-9.953383037919831,-0.040355137590592075,0.35008106152819113,-0.0075059454352167715,-0.00767983163036282,0.0011039505124446419
1765408807.546744,-9.94470172116279,-0.037807570123042034,0.34223956656398896,-0.007822084830521308,-0.007797756571184594,0.0012426267139745712
1765408807.546944,-9.937582513058084,-0.03516741546878109,0.33548732675857473,-0.00803602810322723,-0.007817585480644179,0.0013466530967795093
1765408807.547141,-9.932136642530837,-0.03233342634870649,0.3299958905331646,-0.008148226260534268,-0.0077484326061181925,0.0014169401073737973
1765408807.547341,-9.928361551495945,-0.029221757206147708,0.3258275849712419,-0.008165366795014334,-0.007603038339246528,0.0014553416826806496
1765408807.547541,-9.926157492596701,-0.025778140157621258,0.322950243790484,-0.00809928960585106,-0.007396547926552255,0.0014643778821343172
1765408807.547741,-9.925348844887278,-0.0219859650893651,0.32125668737470636,-0.007965758607976034,-0.007145391770099634,0.001446942294949099
1765408807.547941,-9.925708043837442,-0.017869909977424613,0.3205866855400409,-0.007783163162407389,-0.0068662993785888575,0.0014060281846953004
1765408807.54811,-9.92697998743976,-0.013495286823201731,0.320749300210483,-0.007571216114542368,-0.006575467493474486,0.0013445050757329752
1765408807.54831,-9.928905000554183,-0.008963786681615064,0.32154387148923413,-0.007349705285994008,-0.00628789074326917,0.0012649700979506264
1765408807.54851,-9.931238706742223,-0.00440662378705764,0.322778179439472,-0.0071373455409865436,-0.006016851964115141,0.0011696852842900255
1765408807.54871,-9.933767442758729,2.3915704416021038e-05,0.32428251159895377,-0.0069507720831678,-0.0057735630719507715,0.0010605952788328278
1765408807.54891,-9.936318274775275,0.0041637333284145935,0.3259187220970272,-0.006803712826870166,-0.005566946676398823,0.0009394034051030081
1765408807.549112,-9.938763265484466,0.007846464696218868,0.327583956880696,-0.006706374937841169,-0.005403548838332847,0.0008076721845325021
1765408807.549312,-9.941018256788631,0.010912976821364105,0.3292093489325047,-0.006665073352052769,-0.005287569685922801,0.0006669118613469872
1765408807.549512,-9.943036946269762,0.013220548359616594,0.3307544661115613,-0.0066821155718682955,-0.0052209916828778805,0.0005186298949365405
1765408807.549712,-9.944801483241083,0.01465143853481492,0.3321986761882961,-0.006755939241827778,-0.0052037800202434075,0.00036433271889345646
1765408807.549912,-9.946311258321792,0.015120480249102546,0.33353101409648045,-0.006881480667370316,-0.005234128596287795,0.00020549031341782266
1765408807.550107,-9.947571874718344,0.014581264648302181,0.3347404671959485,-0.007050737460617469,-0.005308726847785659,4.348662724437098e-05
1765408807.550307,-9.94858619231783,0.01303045333099094,0.3358084855899583,-0.007253479622873031,-0.005423026009769795,-0.00012041830430142496
1765408807.550507,-9.949348742141925,0.010509780098600359,0.33670487183539116,-0.007478060095382979,-0.005571489729444988,-0.00028509397632934315
1765408807.550707,-9.9498439886441,0.007105374311548328,0.3373873753786521,-0.007712273719231934,-0.005747824137626847,-0.00044950218735626246
1765408807.550907,-9.950048232568815,0.0029441327021015964,0.3378047393564003,-0.007944208648455553,-0.005945193437904042,-0.000612617985416791
1765408807.551182,-9.949934498888389,-0.0018129740159020843,0.3379026271391668,-0.008163028588808335,-0.006156433335672451,-0.0007733209748477734
1765408807.551382,-9.949479413187337,-0.006980463810243817,0.33763153336167256,-0.008359624466494228,-0.006374272002696746,-0.0009302785461068577
1765408807.551582,-9.948670799491333,-0.012360124443463854,0.3369554374904496,-0.008527084383100644,-0.006591558309552372,-0.0010818480499219497
1765408807.551782,-9.947514694833897,-0.017753927137955306,0.3358598539170999,-0.008660949672007317,-0.006801487639603332,-0.0012260236098648961
1765408807.551982,-9.94604076076074,-0.022976767007181587,0.3343581921024083,-0.008759249030373069,-0.006997813072258918,-0.0013604443090788358
1765408807.552127,-9.944305472144155,-0.027867775471432165,0.3324957189391076,-0.008822327772757555,-0.007175032143567249,-0.0014824672417685291
1765408807.552327,-9.942392671513398,-0.0322991852155369,0.33035061667026,-0.008852509499233926,-0.007328541714347566,-0.0015892969726453523
1765408807.552527,-9.940411079202347,-0.03618203917750281,0.328031695071119,-0.008853638931500289,-0.007454755177473292,-0.0016781557677980632
1765408807.552727,-9.938488454631063,-0.039468370526127124,0.32567254237451015,-0.008830558579315901,-0.007551178858501277,-0.0017464758957589147
1765408807.552927,-9.936762532286398,-0.042149835715803045,0.32342239820891533,-0.008788571619278113,-0.007616446610989273,-0.0017920938691346343
1765408807.553173,-9.935369458222015,-0.0442531446808735,0.32143456924317404,-0.008732939625153346,-0.007650311504393273,-0.0018134260237240459
1765408807.553373,-9.934430909411123,-0.04583294913735391,0.3198535195792462,-0.00866845524398859,-0.0076535928951196415,-0.0018096073560951375
1765408807.553573,-9.934041253592387,-0.04696305630423083,0.31880185708651887,-0.008599116919524086,-0.00762807911663834,-0.0017805828748460905
1765408807.553773,-9.934256107529711,-0.04772690216047375,0.3183684602982151,-0.008527919061433074,-0.007576391202966559,-0.0017271504213519139
1765408807.553973,-9.935083595590468,-0.04820816933209078,0.3185989844489071,-0.008456761242412451,-0.007501819710219675,-0.001650960104398857
1765408807.554151,-9.936479469855573,-0.04848231672722064,0.3194898432261674,-0.008386474844159367,-0.007408151732945716,-0.0015544751520947331
1765408807.554351,-9.93834691944226,-0.04860963743883438,0.320986399318172,-0.008316961090342403,-0.007299505280257641,-0.0014408948795678522
1765408807.554551,-9.94054132630477,-0.048630296466487394,0.32298553928936297,-0.008247426597352555,-0.0071801826422734335,-0.0013140370614197988
1765408807.554751,-9.942879533477791,-0.04856162554507925,0.32534221249265266,-0.008176691630743244,-0.007054546817885773,-0.0011781770884599523
1765408807.554951,-9.945152639617616,-0.04839777454357067,0.32787912223791243,-0.008103535864187071,-0.006926919343658133,-0.0010378462308868143
1765408807.555218,-9.947141134148321,-0.04811166457603536,0.3303987162575498,-0.008027040428798921,-0.006801493959098781,-0.0008976000576043858
1765408807.555418,-9.948631292563423,-0.04765908238843461,0.33269680101961746,-0.007946885054275548,-0.006682256506251536,-0.0007617764377271937
1765408807.555618,-9.949431889442,-0.04698466766736725,0.33457719080536136,-0.007863564823899587,-0.006572897933488946,-0.000634266710543002
1765408807.555818,-9.94939023560164,-0.04602940820452716,0.33586662192797184,-0.007778501405277871,-0.006476708273374136,-0.0005183230126134045
1765408807.556018,-9.948406338952836,-0.044739055195856255,0.3364288396556961,-0.007694036774857631,-0.006396448308436458,-0.00041642097359937964
1765408807.556177,-9.946443848649144,-0.04307265858576497,0.3361765817158238,-0.007613310889986274,-0.006334210086097908,-0.0003301913247627695
1765408807.556427,-9.943536557394593,-0.0410102852856961,0.33508030408103634,-0.007540036262568545,-0.006291289661836115,-0.00026042638573662197
1765408807.556677,-9.939789617270257,-0.03855898841975298,0.33317283617287274,-0.007478191114809688,-0.006268097905783164,-0.0002071570701873115
1765408807.556927,-9.93537512653347,-0.035756258909621766,0.33054948651794896,-0.007431659608018217,-0.006264126473257148,-0.000169783997231332
1765408807.557124,-9.930522212225446,-0.03267047662776931,0.32736334096775954,-0.0074038539601328345,-0.006277971097101792,-0.00014723736423969403
1765408807.557324,-9.925502144203838,-0.029398236589020646,0.32381575212505237,-0.0073973583181094855,-0.006307401023309631,-0.0001381398219803444
1765408807.557524,-9.920609471509758,-0.026058800061458134,0.3201425080212611,-0.007413634519114023,-0.006349458064277194,-0.00014095503991900306
1765408807.557724,-9.91614069452962,-0.022786244582468793,0.31659681734628653,-0.007452823383422158,-0.006400572615933056,-0.00015411634016646988
1765408807.557924,-9.91237239282058,-0.019720110313392915,0.31343071966374764,-0.007513663916904415,-0.0064566928008628665,-0.0001761375538729053
1765408807.558153,-9.909540797821922,-0.01699544462899449,0.3108765849724383,-0.007593539022952789,-0.006513431126920027,-0.00020570877301896002
1765408807.558353,-9.907824532482026,-0.014733135805684555,0.3091301329101482,-0.007688640505052353,-0.006566237738361911,-0.0002417755227942283
1765408807.558553,-9.907331843469688,-0.013031335106002944,0.3083361812189699,-0.007794230620196507,-0.00661060945044254,-0.00028359616767589915
1765408807.558753,-9.908093274503479,-0.011958653349781965,0.3085782238243902,-0.00790496745717073,-0.006642338202766957,-0.0003307712552061093
1765408807.558953,-9.910060314156688,-0.011549696814152462,0.3098727494910617,-0.008015260071583067,-0.006657791152709185,-0.0003832390090569816
1765408807.559108,-9.913109995991196,-0.011803318323027513,0.31216876373461827,-0.008119624581225924,-0.006654200284821008,-0.0004412332132784154
1765408807.559308,-9.917054811892202,-0.012683666253884677,0.3153523687473115,-0.00821302004203257,-0.006629927507444929,-0.0005052041098867966
1765408807.559508,-9.921656848332404,-0.014123793940222631,0.3192557576090374,-0.008291149631815294,-0.006584666206951026,-0.0005757081338807816
1765408807.559708,-9.926644897160067,-0.016031368662765822,0.32366974016352507,-0.008350716399401022,-0.006519543466982279,-0.000653275813847318
1765408807.559908,-9.931733317909634,-0.01829592861773777,0.3283588612250781,-0.00838962277685945,-0.006437097893404259,-0.0007382690609636717
1765408807.560132,-9.936641422444557,-0.02079710622393477,0.3330781040982505,-0.008407100879180096,-0.006341125101218304,-0.0008307404313224547
1765408807.560332,-9.941112026536823,-0.02341319071227945,0.3375899737168641,-0.008403759667527759,-0.006236403702157918,-0.0009303069547502811
1765408807.560532,-9.944927700576038,-0.026029342478263995,0.34168052084542583,-0.008381537485670672,-0.006128333311608909,-0.0010360490633398367
1765408807.560732,-9.947923381871776,-0.028544760100717884,0.3451728556313438,-0.008343554908013582,-0.006022527072417119,-0.0011464428518318391
1765408807.560932,-9.9499944662419,-0.030878198028608677,0.3479370410687574,-0.00829387368659445,-0.005924403413413888,-0.0012593335629936028
1765408807.56118,-9.951100088157744,-0.03297143400358199,0.3498957857621885,-0.008237181425966125,-0.005838817571811713,-0.0013719589673142117
1765408807.56138,-9.95126173038049,-0.03479052102611477,0.35102576982413425,-0.008178433111804592,-0.005769764750885561,-0.0014810299560612105
1765408807.56158,-9.950557489908327,-0.036324861359965425,0.35135465872430355,-0.008122484034246398,-0.0057201750869203,-0.0015828705945380838
1765408807.56178,-9.949112481731893,-0.03758430029896628,0.35095410721080117,-0.008073743839896938,-0.005691808320496375,-0.001673612486424744
1765408807.56198,-9.94708621074126,-0.03859458703255688,0.34992952203582245,-0.008035874149204973,-0.005685245496613588,-0.0017494302911398537
1765408807.562149,-9.94465820124855,-0.039391706529211985,0.3484078965502683,-0.008011547891999099,-0.005699966649121493,-0.0018067976566809101
1765408807.562349,-9.942013415632562,-0.04001572039102348,0.34652529104050195,-0.00800228733505619,-0.005734496858064666,-0.0018427377333693601
1765408807.562549,-9.93932882505034,-0.04050479957365119,0.3444153238623969,-0.008008395477081279,-0.0057865986341426486,-0.0018550423918079547
1765408807.562749,-9.936762071757826,-0.04089004545979343,0.34219954344483056,-0.008028988772634029,-0.005853487269796048,-0.001842439711214494
1765408807.562949,-9.934442792414602,-0.041191526472089526,0.3399801101735182,-0.008062128833864625,-0.005932047936166584,-0.0018046976229681257
1765408807.563141,-9.932466980346828,-0.041415809131888644,0.3378349919652679,-0.00810503992119516,-0.006019038006067746,-0.001742659178337621
1765408807.563341,-9.930894614692859,-0.04155517319782449,0.33581576428904175,-0.00815438970246272,-0.006111263974608063,-0.0016582100968239996
1765408807.563541,-9.929750494104448,-0.04158860517072991,0.3339479294137872,-0.008206603790734042,-0.006205728305962503,-0.0015541830288793865
1765408807.563741,-9.929027803339181,-0.04148449808643645,0.33223341778578774,-0.008258181201062495,-0.006299746358638814,-0.0014342068292159818
1765408807.563941,-9.928693637629674,-0.04120477292954558,0.33065478346037847,-0.008305978967289573,-0.006391035410587609,-0.0013025132628092689
1765408807.564147,-9.928695691079975,-0.04070995661516209,0.3291806902242606,-0.008347438816665336,-0.006477775371831569,-0.0011637171334900381
1765408807.564347,-9.928969497733839,-0.03996464841357465,0.327772449638418,-0.008380735771875175,-0.006558635887646165,-0.001022587877637413
1765408807.564547,-9.92944573969837,-0.0389427703764193,0.32639128707147425,-0.008404837958608503,-0.006632762359224761,-0.0008838303786907185
1765408807.564747,-9.930057084318982,-0.037632014301502544,0.3250056203530495,-0.008419478527420947,-0.006699717633267929,-0.0007518897241251775
1765408807.564947,-9.930743938086174,-0.03603699048802669,0.32359731460644764,-0.008425051976227203,-0.006759385231121621,-0.0006307893756125003
1765408807.565131,-9.931458621310133,-0.03418076565414618,0.32216599517168315,-0.008422455086300878,-0.006811849251596879,-0.0005240065633424756
1765408807.565331,-9.932167762269838,-0.032104698207134366,0.3207309687735918,-0.008412895833876239,-0.006857271274985769,-0.0004343848186219434
1765408807.565531,-9.932852978081547,-0.02986666157519684,0.3193307302668156,-0.008397692871139393,-0.006895784263797468,-0.00036408141969980506
1765408807.565731,-9.933510023084382,-0.027537859791984462,0.3180202229387362,-0.008378085228998374,-0.006927419108893349,-0.00031454487531074033
1765408807.565931,-9.934146620357932,-0.02519850455591351,0.31686613261540825,-0.008355068627593856,-0.0069520729467165065,-0.00028651429760882135
1765408807.566129,-9.93477927931382,-0.022932680834450114,0.31594071983425387,-0.008329272703468166,-0.006969520046704895,-0.00028003198803750297
1765408807.566329,-9.935429538239598,-0.02082281146441466,0.31531495254756225,-0.008300892295583218,-0.00697945749337864,-0.0002944643322243601
1765408807.566529,-9.936120139491281,-0.018944220489415086,0.3150517771425621,-0.008269682868368326,-0.0069815732502190395,-0.00032853135014922446
1765408807.566729,-9.936871580392557,-0.017360319973320847,0.3152002151204672,-0.008235022660710446,-0.006975625917210746,-0.00038034888143139713
1765408807.566929,-9.937699337192088,-0.016118868260975503,0.31579076309291726,-0.008196033840981725,-0.006961530217012751,-0.0004474886927352465
1765408807.567119,-9.93861193289659,-0.015249606144914349,0.3168324454850335,-0.008151746629969854,-0.0069394437850524085,-0.0005270607420031349
1765408807.567319,-9.939609950752363,-0.0147634186998415,0.31831178413739086,-0.008101286439388285,-0.00690984683664728,-0.0006158185346052854
1765408807.567519,-9.940686011719034,-0.014653009591763785,0.32019377047201947,-0.00804406248159852,-0.006873600303887332,-0.0007102845042102902
1765408807.567719,-9.941825548368127,-0.014894927373736495,0.32242460349759283,-0.007979935422874698,-0.006831965579798068,-0.000806889742301311
1765408807.567919,-9.9430079890066,-0.015452675534106595,0.3249356294585992,-0.007909343546443955,-0.006786573178368713,-0.0009021216563486861
1765408807.568158,-9.944207933859477,-0.016280576361809025,0.327647815567441,-0.007833373151952214,-0.006739337416337498,-0.000992673036423626
1765408807.568358,-9.945396153571878,-0.017328034363767383,0.3304762778892082,-0.007753766894001917,-0.0066923249432892596,-0.001075585290316371
1765408807.568558,-9.946540555717476,-0.018543846631668883,0.33333464921106976,-0.007672869279122469,-0.00664759176353705,-0.0011483770141184585
1765408807.568758,-9.947607348359988,-0.019880213668843256,0.336139150601088,-0.007593510683570475,-0.006607005872452814,-0.0012091471628518226
1765408807.568958,-9.948562449164696,-0.02129610308454556,0.33881212177034215,-0.00751883339466131,-0.006572073879112726,-0.00125664097244361
1765408807.569202,-9.949372996193116,-0.022759634841659594,0.3412847257038743,-0.007452068884692602,-0.006543791298484444,-0.0012902681620859033
1765408807.569402,-9.950008829299167,-0.024249226534796543,0.34349873896093464,-0.0073962836509145315,-0.0065225354439175315,-0.001310068162185141
1765408807.569602,-9.950443965863807,-0.025753370758835673,0.3454076221266469,-0.007354117034444266,-0.0065080155076267295,-0.0013166254717923475
1765408807.569802,-9.950658155735113,-0.02726909458731207,0.34697715740573304,-0.007327536980264197,-0.006499287806553053,-0.0013109469125304174
1765408807.570002,-9.9506384648323,-0.02879933617545286,0.3481857915417606,-0.007317641032894039,-0.006494836942226084,-0.0012943181894769073
1765408807.57021,-9.950380653066992,-0.030349624601730844,0.3490246559388191,-0.007324530105222184,-0.006492716245022122,-0.0012681580474713581
1765408807.57041,-9.949890077551546,-0.03192453468435127,0.34949722894321955,-0.007347277520736182,-0.006490733843572781,-0.0012338854995232078
1765408807.57061,-9.949181980150094,-0.03352439197681871,0.34961866988864343,-0.0073840025436355036,-0.006486664650925866,-0.0011928116860801666
1765408807.57081,-9.948281169643131,-0.03514263134513077,0.34941482719843436,-0.007432039400146776,-0.006478464531395099,-0.0011460641554585896
1765408807.57101,-9.947221195633148,-0.036764096808050366,0.34892083953800734,-0.0074881772650073055,-0.0064644635763540246,-0.0010945472886050456
1765408807.571204,-9.94604317197654,-0.03836444265924154,0.34817928106132706,-0.007548939215209903,-0.006443522309881316,-0.0010389382562043317
1765408807.571404,-9.944794461023905,-0.039910671363602775,0.3472379564486059,-0.007610868336678789,-0.006415143825252616,-0.000979714559300725
1765408807.571604,-9.943527382187181,-0.04136272862435681,0.34614751781635744,-0.007670793208865617,-0.006379540146685506,-0.0009172077066209041
1765408807.571804,-9.942297919406096,-0.0426759766394055,0.3449589596280199,-0.007726049599435281,-0.006337652240767041,-0.0008516770576019987
1765408807.572004,-9.941164244252487,-0.0438042907652879,0.34372098197942474,-0.007774639601536286,-0.006291125512719149,-0.0007833967795877615
1765408807.572132,-9.940184929619042,-0.04470347747288023,0.3424774143484071,-0.007815315700395474,-0.006242247918680001,-0.0007127473903942016
1765408807.572332,-9.93941689536318,-0.04533468374078758,0.3412651463350203,-0.007847587668378498,-0.006193860216866785,-0.0006403035707224781
1765408807.572532,-9.938913106507373,-0.04566745063065285,0.34011290711544595,-0.007871662707244357,-0.0061492432115815635,-0.000566912373702992
1765408807.572732,-9.938719775871228,-0.045682077774715724,0.339040773684857,-0.007888337568512793,-0.00611197956841345,-0.0004937574928176739
1765408807.572932,-9.938872598897744,-0.04537104323685195,0.338059927845196,-0.007898861393941714,-0.006085785170935381,-0.0004224031257345699
1765408807.573225,-9.939391637960387,-0.044739352060339944,0.33717221809406006,-0.0079047819940766,-0.0060743088976797106,-0.00035480752726304107
1765408807.573425,-9.940274814268719,-0.0438038133956475,0.3363693262278576,-0.007907781820353668,-0.006080906858076008,-0.0002932964760908397
1765408807.573625,-9.941490363486768,-0.042591340447166996,0.3356315426802971,-0.007909507708162214,-0.00610840401782689,-0.00024049186218420038
1765408807.573825,-9.942969049997144,-0.04113644232915965,0.33492639760073817,-0.007911402584984888,-0.006158861056471877,-0.00019919720378619871
1765408807.574025,-9.944597457261418,-0.03947814368410631,0.33420778551710156,-0.007914555413530656,-0.0062333660426523605,-0.00017224703663214642
1765408807.574117,-9.946214084164893,-0.037656617277200585,0.33341651386219195,-0.007919591569664666,-0.006331867493783065,-0.0001623307652669656
1765408807.574317,-9.947609957547455,-0.0357098455928235,0.3324830539847478,-0.007926624654397857,-0.006453057661111132,-0.00017180493669709024
1765408807.574517,-9.948534967344337,-0.03367065515485113,0.33133275313541033,-0.007935282397103135,-0.006594305931867156,-0.0002025107444175391
1765408807.574717,-9.94871041774094,-0.031564492685256164,0.3298933107295631,-0.007944807224972223,-0.006751636039630762,-0.00025561409668313305
1765408807.574917,-9.947847585535701,-0.029408306205587306,0.3281041334396489,-0.007954219567130686,-0.006919738129386243,-0.0003314823803827657
1765408807.57515,-9.945671331694072,-0.027210819056128766,0.3259270006695573,-0.007962521122027036,-0.007092007005807051,-0.0004296059515923081
1765408807.57535,-9.94194696166241,-0.02497432236027492,0.32335703857282844,-0.007968907745502954,-0.007260602177678304,-0.000548566090673847
1765408807.57555,-9.936507788450603,-0.022697880734906174,0.3204325067736815,-0.007972959029228913,-0.0074165341122075165,-0.0006860468935668874
1765408807.57575,-9.929280535707317,-0.020381603728745566,0.317241758941705,-0.007974775306055582,-0.007549790244457943,-0.0008388867866965257
1765408807.57595,-9.920305877116597,-0.018031449244676118,0.3139260656640408,-0.007975041949683325,-0.00764951743387441,-0.0010031655982054386
1765408807.576257,-9.909751815893665,-0.01566393228908249,0.31067752157984924,-0.007975012431457313,-0.007704273683268231,-0.0011743244177493983
1765408807.576457,-9.89791807743065,-0.013310098246591615,0.30773171244587205,-0.007976412916812245,-0.00770235602906615,-0.0013473158361568109
1765408807.576657,-9.885230251959896,-0.011018146599608335,0.30535517594931844,-0.007981280846473702,-0.007632207284047276,-0.0015167801588482524
1765408807.576857,-9.872223185439617,-0.008854155256358779,0.3038281258605661,-0.007991756478524124,-0.007482900813658751,-0.0016772408092637582
1765408807.577057,-9.85951405037584,-0.0069004987153236845,0.30342350366649884,-0.008009848890506734,-0.007244697716135217,-0.001823313225640862
1765408807.577129,-9.84776646579135,-0.005251797534139285,0.30438401259461956,-0.008037198487146775,-0.006909663050310657,-0.0019499257873387638
1765408807.577329,-9.837647793051445,-0.0040085391116784766,0.30689910961117817,-0.0080748595937811,-0.006472315098133501,-0.0020525525497137667
1765408807.577529,-9.829782273709299,-0.0032688015298371303,0.3110839158725619,-0.008123128514835787,-0.00593026440110892,-0.002127451239826458
1765408807.577729,-9.824703159504097,-0.0031187558905001653,0.31696188029086525,-0.008181440582746915,-0.005284782622734277,-0.002171889378602757
1765408807.577929,-9.822807585824318,-0.003622811592352729,0.3244529930792035,-0.008248352410583512,-0.0045412310844298465,-0.0021843332881741986
1765408807.578147,-9.824318568538146,-0.004814408765470391,0.3333692544916054,-0.00832161486062313,-0.003709276449862242,-0.002164571618243906
1765408807.578347,-9.82925877955483,-0.006688595899797228,0.34341865689169665,-0.008398330678927311,-0.0028028257784342,-0.0021137460200713067
1765408807.578547,-9.837440243517747,-0.009197701645146081,0.3542181129330961,-0.008475179627950403,-0.0018396297488818979,-0.0020342692154598657
1765408807.578747,-9.848472590296169,-0.012251448868741745,0.3653148342056797,-0.008548685062344298,-0.0008405400499785063,-0.0019296312758125273
1765408807.578947,-9.86179014865835,-0.015722331436401525,0.37621475334648724,-0.008615491198449189,0.00017153661780728,-0.0018041268838038201
1765408807.579182,-9.87669537708245,-0.019455781565359546,0.386415540252522,-0.00867261965406741,0.0011728903461388329,-0.001662560469032316
1765408807.579432,-9.892413461072003,-0.02328316985406845,0.39544076269515815,-0.008717676636979504,0.0021403390580334563,-0.0015099802119042307
1765408807.579682,-9.908151185348332,-0.027035014759133096,0.40287148950169127,-0.00874899081342043,0.0030525134410065587,-0.0013514586050465346
1765408807.579932,-9.92315318251468,-0.03055245005810527,0.4083724261702558,-0.0087656766715169,0.0038909852402035172,-0.0011919044197928586
1765408807.580129,-9.93675025073686,-0.03369648466095121,0.4117107429088563,-0.008767630502754222,0.004641146394084674,-0.0010358830224344458
1765408807.580329,-9.948396556456036,-0.036355642357470914,0.4127663529902821,-0.00875546723027282,0.005292776525569605,-0.0008874406924263359
1765408807.580529,-9.957694309190288,-0.038452271206103485,0.4115329757746279,-0.008730401681446292,0.005840284490015663,-0.0007499553823483913
1765408807.580729,-9.96440589268904,-0.03994662653991769,0.4081106443911619,-0.00869408067106741,0.006282656934293897,-0.0006260449635673831
1765408807.580929,-9.968454643995763,-0.040837324843397825,0.4026919161639339,-0.008648383906105818,0.006623164893729848,-0.0005175423967564713
1765408807.58121,-9.969916245439595,-0.04115782890949909,0.395544656740596,-0.008595220663211016,0.006868867672661326,-0.000425516010806391
1765408807.58141,-9.969002771732203,-0.04097027817348789,0.3869935912480797,-0.008536347579564597,0.0070299404949661455,-0.0003503074545013156
1765408807.58161,-9.966041066718354,-0.04035850041885391,0.3774017315986216,-0.008473225161927311,0.00711885922326842,-0.0002915861616281431
1765408807.58181,-9.961446830946128,-0.03942104409657517,0.36715210975101414,-0.008406924562260746,0.007149493362065624,-0.0002484436923763519
1765408807.58201,-9.955695837219878,-0.03826384916546593,0.3566300842150711,-0.008338093025062002,0.007136170874422193,-0.0002195419320054893
1765408807.582166,-9.949293937077922,-0.03699207749535315,0.3462066598335936,-0.008266982665902704,0.007092781144970721,-0.00020329429877283744
1765408807.582366,-9.942747703090825,-0.035701628284659635,0.3362235431109945,-0.008193540984471965,0.007031978445886666,-0.00019803537585100881
1765408807.582566,-9.936537459011305,-0.03447183497532424,0.32698072580779936,-0.008117553175338738,0.006964536330717658,-0.0002021441155003117
1765408807.582766,-9.931094079638507,-0.033360790723442044,0.3187271055366198,-0.008038817090946372,0.006898883193046948,-0.00021411782620979556
1765408807.582966,-9.926780502840456,-0.032403695521688695,0.3116542844420809,-0.007957324574272418,0.006840827868806871,-0.00023262011637856727
1765408807.583162,-9.923878568793729,-0.03161345713203257,0.3058935157210776,-0.007873421718145222,0.006793469637911042,-0.00025652596306911525
1765408807.583362,-9.922581541918923,-0.030982460215630468,0.30151568442796794,-0.007787926510575885,0.00675727895056813,-0.00028496451334677613
1765408807.583562,-9.922992356972282,-0.03048508807469576,0.29853404335549144,-0.007702192138360669,0.006730328062297312,-0.00031733888175009955
1765408807.583762,-9.925127273692993,-0.030081450782107787,0.2969093236081343,-0.00761811320643365,0.00670864283817505,-0.00035330469101332857
1765408807.583962,-9.928924281627879,-0.029722890583070417,0.2965569542645166,-0.007538077666824563,0.0066866410706557765,-0.0003927134131509097
1765408807.584181,-9.934255225291288,-0.029359006182103343,0.2973562020359136,-0.007464870361692004,0.006657620305951723,-0.0004355476337107202
1765408807.584381,-9.940940202794067,-0.02894490046880365,0.299160710274844,-0.007401536810331523,0.006614258884671095,-0.0004818716878667255
1765408807.584581,-9.948762522307705,-0.028447074383909195,0.30180929532229855,-0.007351217701361348,0.006549098059563523,-0.0005317966961061538
1765408807.584781,-9.957482654795525,-0.02784713074973759,0.30513553652060205,-0.007316963817859701,0.006454981487270054,-0.0005854383714417221
1765408807.584981,-9.966850209252627,-0.027143528810076614,0.30897504781149254,-0.0073015391673143136,0.006325439477358038,-0.0006428494721026915
1765408807.585151,-9.976613624886253,-0.02635208903668003,0.3131700620393982,-0.007307220571677324,0.0061550151466273,-0.0007039329977427123
1765408807.585351,-9.98652763615037,-0.025505518614482834,0.3175715412211749,-0.007335605941382025,0.005939534731771928,-0.0007683638180451172
1765408807.585551,-9.996358603227174,-0.024651532568655127,0.3220392759962175,-0.007387448015275863,0.0056763234670033,-0.0008355454540390352
1765408807.585751,-10.005887844969862,-0.023849005253922764,0.3264406139308949,-0.007462532303574781,0.005364361935278339,-0.0009046073717086064
1765408807.585951,-10.014913397780074,-0.02316223064042728,0.3306487073673535,-0.007559616132463047,0.005004368730450838,-0.0009744265961615418
1765408807.586181,-10.023250966379031,-0.022654269126653193,0.33454125916266797,-0.007676439803485078,0.004598790543644375,-0.0010436543550025712
1765408807.586381,-10.030734860662905,-0.022380734777207555,0.33800044906100346,-0.00780981151596776,0.00415168664270539,-0.0011107451124237734
1765408807.586581,-10.03721935162494,-0.022384910711798173,0.3409142480221713,-0.007955757634773278,0.0036685094459360844,-0.0011740050849763616
1765408807.586781,-10.042580427487662,-0.022694206123359133,0.3431790340518113,-0.00810972263982164,0.0031557976135344625,-0.001231679791657222
1765408807.586981,-10.046717672899938,-0.023317466746617704,0.34470333131485764,-0.00826679942653684,0.0026208071591711213,-0.0012820799060318186
1765408807.587204,-10.049555923138922,-0.02424292911502202,0.3454123512378189,-0.008421969147658956,0.002071112446624103,-0.0013237172393273692
1765408807.587404,-10.051046352073195,-0.0254373508931376,0.3452527686957911,-0.00857033070542428,0.0015142146964332614,-0.0013554113897425904
1765408807.587604,-10.051166779687348,-0.026847307045865007,0.34419705092164865,-0.00870730460065827,0.0009571943407768403,-0.0013763423224710974
1765408807.587804,-10.04992129437472,-0.028403286762706988,0.3422467891763663,-0.008828802649780565,0.00040643024861202604,-0.0013860528106585392
1765408807.588004,-10.047339589351706,-0.030026224617573087,0.3394346799696331,-0.00893136037970884,-0.00013260852720324372,-0.00138442486917076
1765408807.588213,-10.043476407918613,-0.031635176508889536,0.33582487992591936,-0.009012231106571534,-0.0006555015137850547,-0.0013716531590055134
1765408807.588413,-10.038411187438832,-0.03315462651169824,0.3315115222202156,-0.009069441474449859,-0.0011589472428134727,-0.0013482225172585863
1765408807.588613,-10.032247751071873,-0.03452037360015981,0.32661546743218656,-0.009101809585822266,-0.001640762688099278,-0.001314884178049746
1765408807.588813,-10.025113954395598,-0.035683603634808166,0.3212798378963776,-0.009108929129105048,-0.0020998098887296903,-0.0012726267196950106
1765408807.589013,-10.017161341783067,-0.0366131722613831,0.3156651794266909,-0.009091125359106288,-0.0025358526680284254,-0.0012226483092967501
1765408807.589203,-10.008564750942291,-0.03729623555589633,0.3099448753965908,-0.009049390627029644,-0.002949352712104852,-0.001166343764096262
1765408807.589403,-9.999521403448158,-0.037737327130157095,0.304300820497773,-0.008985307752439563,-0.0033412214813588127,-0.0011053155371040049
1765408807.589603,-9.990248688386057,-0.03795596891741757,0.29891884310662203,-0.008900967809405419,-0.0037125502171543876,-0.0010414035698421025
1765408807.589803,-9.980979893933876,-0.037983020200744635,0.2939833351525074,-0.008798883900711658,-0.0040643410890201645,-0.0009767130316366227
1765408807.590003,-9.971957507546659,-0.0378562097455262,0.2896709257430414,-0.008681896333990928,-0.004397258977132063,-0.0009136108388593581
1765408807.590224,-9.963424127227478,-0.037615523213789304,0.2861434387933131,-0.008553062888192577,-0.00471142140917417,-0.0008546678046564716
1765408807.592254,-9.955611379918754,-0.03729915515070234,0.283540566005045,-0.008415533862324335,-0.005006247368324602,-0.0008025416898475158
1765408807.594283,-9.948727565752064,-0.03694052708405687,0.2819727236608893,-0.008272421757965628,-0.005280389434547758,-0.0007598173660442285
1765408807.595261,-9.942945033626454,-0.036566532405020814,0.28151457233882665,-0.008126682702834377,-0.005531769506806078,-0.0007288322501882814
1765408807.599176,-9.938388446298841,-0.0361968694783726,0.28219966161086324,-0.007981026610957013,-0.005757723100900692,-0.0007115134856360766
1765408807.602213,-9.935125062666067,-0.035844193969113355,0.2840165828941847,-0.007837865856405196,-0.0059552370428529264,-0.0007092428166941313
1765408807.604214,-9.933158028095892,-0.035514874298411186,0.2869069530999479,-0.007699301812848084,-0.00612124982861427,-0.0007227553423605937
1765408807.607203,-9.932423512113237,-0.035210262609092345,0.29076561754046637,-0.007567139979200398,-0.0062529770389539215,-0.0007520756955996993
1765408807.609244,-9.932792331951289,-0.034928446299072095,0.2954435735946507,-0.007442920261793898,-0.006348223520029322,-0.0007964980144981293
1765408807.612278,-9.93407633249394,-0.034666340150116076,0.3007540138995557,-0.007327948825051252,-0.006405647250818289,-0.0008546179562871221
1765408807.613286,-9.936039240882247,-0.03442176506243136,0.3064814359283433,-0.00722332086058918,-0.006424946934227956,-0.0009244211618812267
1765408807.617238,-9.938411135873295,-0.03419500990219128,0.31239318301467894,-0.007129929538443871,-0.006406954729960245,-0.0010034222954018747
1765408807.618232,-9.940905271527392,-0.0339894781202557,0.3182524177366514,-0.007048463683692536,-0.006353624176254462,-0.001088835732605863
1765408807.623182,-9.94323585877761,-0.03381138940972379,0.32383148675008006,-0.006979401942558601,-0.006267911748302791,-0.0011777507054823574
1765408807.625181,-9.945135476254187,-0.033668888102996085,0.32892475317784287,-0.006923012031882526,-0.00615356217617684,-0.001267286451840785
1765408807.627151,-9.946370928890406,-0.03357099975572432,0.33336006479681624,-0.006879360259527012,-0.006014822125253193,-0.00135471527523904
1765408807.629178,-9.946756515294862,-0.03352662242919046,0.3370080433987202,-0.006848330604730357,-0.005856117336334219,-0.0014375554631686472
1765408807.633249,-9.946163816204995,-0.03354340926056303,0.3397883934657662,-0.006829646994026163,-0.0056817293379218614,-0.0015136435661887656
1765408807.635171,-9.94452736333938,-0.033626336186300725,0.34167257560371095,-0.006822889964802958,-0.005495502292530269,-0.0015811935437828179
1765408807.63821,-9.941845951109812,-0.03377603989710013,0.3426825905447597,-0.006827500917187717,-0.005300605168605778,-0.0016388434001095814
1765408807.64015,-9.9381798434621,-0.033987406803597534,0.3428862099920375,-0.006842771789763929,-0.005099370308091977,-0.0016856864119645554
1765408807.64065,-9.933644511496306,-0.03424904750959716,0.3423894700836884,-0.006867821558954099,-0.004893221888050492,-0.0017212866959337813
1765408807.643153,-9.928401656223372,-0.03454406065681228,0.341327330024909,-0.00690156139979555,-0.004682695044438512,-0.0017456833852591022
1765408807.64715,-9.9226481726582,-0.034852021691037724,0.33985317353055755,-0.006942650136221056,-0.004467533715174122,-0.0017593893641531006
1765408807.649284,-9.916603616197733,-0.03515172123285406,0.3381276671375171,-0.006989445473556598,-0.004246848193490973,-0.0017633876651887476
1765408807.652197,-9.91049679512104,-0.0354240535035288,0.3363075891079192,-0.00703996473365873,-0.004019311688870888,-0.0017591219249531306
1765408807.653208,-9.904552267661826,-0.03565461596301777,0.3345354131224663,-0.007091875238172846,-0.0037833753462763265,-0.0017484704597621158
1765408807.658128,-9.898977585988183,-0.035835803161116356,0.3329303876339914,-0.007142533075930535,-0.0035374817744290355,-0.001733692448874899
1765408807.661177,-9.893952021878752,-0.03596824379908489,0.33158157512058173,-0.007189079996844854,-0.0032802588714475516,-0.0017173413719352147
1765408807.663153,-9.889617338781212,-0.036061354316043834,0.3305430345462266,-0.007228596318297846,-0.0030106791829143005,-0.0017021498461009571
1765408807.663653,-9.886071121843532,-0.036132758730038766,0.3298312656111551,-0.007258297001237211,-0.0027281751316866882,-0.0016908943157941615
1765408807.667151,-9.883363275746529,-0.03620648665739663,0.3294251840310404,-0.00727574982770276,-0.002432705776951276,-0.001686246740766686
1765408807.669164,-9.881496349183282,-0.036310159020853654,0.32926901707544326,-0.0072790888748345385,-0.0021247742701184873,-0.001690618470201595
1765408807.672296,-9.880430088148628,-0.036471648579305495,0.3292783315742048,-0.007267193445415744,-0.0018053981047017633,-0.0017060036528080795
1765408807.675186,-9.880090034363572,-0.036715830594961786,0.3293489400951265,-0.00723980394324625,-0.0014760404158148522,-0.0017338361148892744
1765408807.677163,-9.880379328599718,-0.03706197495853666,0.3293679457596062,-0.0071975544145733575,-0.0011385192291026578,-0.0017748802068414948
1765408807.678285,-9.881192414247524,-0.03752211168058794,0.329225883476785,-0.0071419167495951116,-0.0007949152709820743,-0.001829176841731273
1765408807.682212,-9.882429094036153,-0.03810040825340521,0.328828744881222,-0.0070750691265870505,-0.000447492255232234,-0.001896058740425162
1765408807.684231,-9.88400728408674,-0.03879332287636035,0.32810855061151767,-0.006999713789001678,-9.863131906921797e-05,-0.001974236714494499
1765408807.687252,-9.885872871716431,-0.03959013139204287,0.32703116958245837,-0.006918872017577238,0.0002492253262611252,-0.002061945892925011
1765408807.689261,-9.88800545341972,-0.04047343803155902,0.32560045086058426,-0.006835679149177101,0.000593622578240699,-0.0021571304036415873
1765408807.693217,-9.890419384864177,-0.041419476133393605,0.3238583469902227,-0.006753196174118199,0.0009321259246372293,-0.002257640217609455
1765408807.695155,-9.893160239779236,-0.04239828965212199,0.32188122723048945,-0.006674250636450113,0.001262331733249362,-0.002361415952013967
1765408807.695655,-9.896297178967188,-0.04337410389399422,0.3197727790003979,-0.006601315664275548,0.0015818503019032729,-0.0024666436664539776
1765408807.699231,-9.899911912306248,-0.0443062329618057,0.31765394691436144,-0.006536428316018306,0.0018882628880165897,-0.0025718676996608226
1765408807.70228,-9.904085166485771,-0.045150737103232495,0.3156505991348439,-0.006481139305240761,0.0021790578733296728,-0.002676053549693048
1765408807.704218,-9.908881973852433,-0.045862827171506866,0.3138800720487924,-0.006436481749658708,0.002451556190916909,-0.0027785959142825594
1765408807.70827,-9.914337474861567,-0.04639980823303034,0.3124380909574423,-0.006402949709973656,0.0027028427402260888,-0.0028792714356379234
1765408807.709213,-9.920445008123496,-0.04672421416567408,0.31138753357102367,-0.006380485406789735,0.002929725752630495,-0.0029781424762900083
1765408807.712219,-9.92714801991096,-0.046806731589142545,0.3107502286437022,-0.00636848217285542,0.003128746287468312,-0.003075426134777458
1765408807.715154,-9.934336931918613,-0.0466285277493185,0.31050276354938494,-0.006365813583549491,0.0032962535611304232,-0.003171348801791427
1765408807.718196,-9.941851645595097,-0.046182648336525814,0.3105771178222498,-0.0063708959854230545,0.0034285508204031628,-0.00326600847168141
1765408807.720179,-9.949489742473546,-0.04547424916884954,0.31086652930538766,-0.006381784894728003,0.003522105679024954,-0.0033592642207510314
1765408807.723233,-9.957019636694579,-0.044519617554036134,0.311236176355372,-0.006396299929512456,0.0035738102803430758,-0.0034506658632383488
1765408807.724261,-9.964197166600366,-0.04334420823017256,0.31153732790970023,-0.006412169168662016,0.0035812682458805072,-0.003539429120443682
1765408807.725211,-9.97078367912742,-0.041980152988619374,0.3116230420267329,-0.006427180966587185,0.0035430763232255046,-0.00362445568807293
1765408807.729211,-9.97656367620938,-0.04046378396533128,0.3113634529501667,-0.006439329454943469,0.0034590627432591584,-0.0037043953850620847
1765408807.73223,-9.981360421331027,-0.03883361190007055,0.31065899873130165,-0.006446940310363362,0.0033304459252208765,-0.003777748198336132
1765408807.734229,-9.985048331820764,-0.03712900335142506,0.30945037086535626,-0.00644876585638645,0.0031598864634657525,-0.0038430043010979015
1765408807.737182,-9.987561386873486,-0.03538961102697535,0.30772442464905875,-0.006444042383845625,0.0029514183991943103,-0.003898817721639889
1765408807.738244,-9.988897148620865,-0.03365545775467128,0.3055157737737542,-0.006432507022180194,0.0027102588165903566,-0.0039442043267453
1765408807.742265,-9.989116326043849,-0.031967412816545145,0.30290426325446385,-0.006414375694184917,0.0024425070457976773,-0.003978748052947677
1765408807.745278,-9.98833808342967,-0.030367623643953626,0.30000887168333734,-0.006390286213144015,0.0021547568483989052,-0.004002791916859813
1765408807.747239,-9.986731482299323,-0.028899367545100106,0.296978755846652,-0.006361210562003846,0.00185365609935318,-0.004017584372755608
1765408807.749237,-9.984503563699361,-0.027605881603734526,0.29398213729917166,-0.006328339331508074,0.0015454570024798257,-0.0040253499168865494
1765408807.752266,-9.98188470573714,-0.02652804805113184,0.2911936957659625,-0.006292942659074991,0.0012356043839895528,-0.00402925771755504
1765408807.754212,-9.97911214670326,-0.025701268316539364,0.2887812734551424,-0.00625621764426617,0.0009284081912479609,-0.004033274477833153
1765408807.757239,-9.97641296697747,-0.025152261220409595,0.2868930303778613,-0.006219139497740264,0.0006268377729889592,-0.0040419067080916665
1765408807.759259,-9.973988162616923,-0.024896666438088456,0.28564645829730695,-0.006182337590689676,0.00033246127365981073,-0.00405985891370191
1765408807.760216,-9.971999399319023,-0.024938134992154765,0.28512050420253016,-0.006146015538344891,4.553579091220952e-05,-0.004091650977419857
1765408807.765253,-9.970559520439759,-0.025269135553648125,0.2853514237873391,-0.006109927805150604,-0.00023476580671700844,-0.004141244084906116
1765408807.76721,-9.969727196723097,-0.025873210799563874,0.2863322773276875,-0.006073416675871579,-0.0005100249024154993,-0.004211719077138999
1765408807.769254,-9.969505646785183,-0.02672807558643398,0.2880156420317285,-0.006035504939427619,-0.0007821920108415211,-0.004305039356689518
1765408807.772244,-9.969845218690416,-0.02780882396417943,0.29031914643934886,-0.005995032667401708,-0.0010531991321091896,-0.004421918712424658
1765408807.774212,-9.97064955863695,-0.02909055600897447,0.29313344284819454,-0.00595082090813616,-0.0013246138965013908,-0.004561804476590005
1765408807.777221,-9.971784867515735,-0.030549896640492766,0.2963319643839618,-0.005901840613434912,-0.0015973616690229226,-0.004722975574370819
1765408807.780169,-9.973091408085754,-0.03216516379408894,0.29978142660047885,-0.005847363695878459,-0.0018715241465761792,-0.004902740665333235
1765408807.78225,-9.974396187868257,-0.03391533598737268,0.3033518640974605,-0.005787077180943357,-0.0021462156434907155,-0.0050977054805621085
1765408807.784208,-9.975525678727216,-0.035778335523445885,0.30692514173899604,-0.005721149464712733,-0.0024195403183458145,-0.005304066434106407
1765408807.787203,-9.976317424145174,-0.03772930065732241,0.3104011461354371,-0.005650245387801813,-0.0026886352423469008,-0.005517884862717628
1765408807.790249,-9.97662938079021,-0.03973940823666702,0.3137010653129865,-0.005575491676118348,-0.002949798436655835,-0.00573530384817562
1765408807.792277,-9.976346022917062,-0.041775546240378186,0.31676740965274586,-0.005498396857424489,-0.003198689691305808,-0.005952684972477603
1765408807.793272,-9.975380795050624,-0.04380089417995842,0.3195609294226726,-0.005420731673430772,-0.0034305816333232778,-0.006166661369552806
1765408807.797215,-9.97367531788707,-0.04577632206674801,0.3220552848270469,-0.005344378746362013,-0.003640633910162864,-0.006374120938887473
1765408807.799268,-9.971196449377329,-0.04766242672578531,0.3242308560434019,-0.0052711648638999395,-0.0038241646560564957,-0.0065721454014046445
1765408807.803205,-9.96793255719539,-0.04942193505819786,0.3260691344095197,-0.005202694984153151,-0.003976897230234464,-0.006757936458092537
1765408807.805234,-9.963890164252836,-0.051022129109302254,0.32754875900277475,-0.005140210533219691,-0.004095163690511704,-0.006928761262440609
1765408807.807212,-9.959091707578546,-0.05243694972448523,0.32864373828414956,-0.005084491709376045,-0.0041760500633256994,-0.007081945348477761
1765408807.810289,-9.95357469103354,-0.053648558731228056,0.3293239093868279,-0.005035813314929024,-0.004217473952112198,-0.007214930185478253
1765408807.813266,-9.947392058689303,-0.054648347583120475,0.3295572351412729,-0.004993950102926811,-0.004218192170069727,-0.007325396152891999
1765408807.815271,-9.940613206754065,-0.055437548313220786,0.32931316153866913,-0.00495821737450595,-0.004177743270660152,-0.007411436121659511
1765408807.817243,-9.93332484912817,-0.05602760295657687,0.3285661736425592,-0.004927529705060326,-0.004096336016643364,-0.0074717556964052296
1765408807.819299,-9.925631094375984,-0.05644027036336259,0.3272990313540709,-0.0049004645110282356,-0.003974698784785975,-0.0075058736375141315
1765408807.823238,-9.917652459502134,-0.056707213880452356,0.32550568576965816,-0.004875324705325985,-0.003813905242026896,-0.007514296389284347
1765408807.823738,-9.909523833105268,-0.056868656550595593,0.3231941032109347,-0.004850202834242195,-0.003615189651319698,-0.00749864205811664
1765408807.828228,-9.901391446891726,-0.05697069267525932,0.32038897587142945,-0.0048230541881881155,-0.0033797648996970087,-0.007461692564523791
1765408807.830192,-9.89340884316648,-0.05706105586391869,0.31713387900321377,-0.00479178568949296,-0.0031086595276974592,-0.007407359067758663
1765408807.830692,-9.885731854681403,-0.057183576754335164,0.3134922907897463,-0.004754362106656464,-0.0028025939193840454,-0.007340554699535796
1765408807.833328,-9.878512816799349,-0.05737211224511619,0.30954715843958425,-0.004708924876215142,-0.0024619168537342163,-0.007266978537077182
1765408807.8373,-9.871894498780893,-0.05764515418348174,0.3053991322910635,-0.004653912755530947,-0.0020866203948262684,-0.007192823801667243
1765408807.839261,-9.866004409782208,-0.05800238744802726,0.3011638927402513,-0.004588167076020693,-0.0016764432183382623,-0.007124430906282305
1765408807.842236,-9.860950136945716,-0.05842408640087885,0.2969690644160688,-0.004510999862512505,-0.0012310602449127042,-0.00706791280313591
1765408807.845266,-9.856816244294485,-0.058873556492952894,0.2929511322809426,-0.004422205892373591,-0.0007503426001628423,-0.007028785642053508
1765408807.847257,-9.853663053996515,-0.059302113366047834,0.289252624243945,-0.004322011907671743,-0.0002346606809612728,-0.0070116392026404245
1765408807.849287,-9.851527350561598,-0.0596555920208563,0.286019596570964,-0.004210972303785565,0.0003148032111045396,-0.007019876284007482
1765408807.852277,-9.850424693199736,-0.059881218996983225,0.2833991475370594,-0.004089832243458037,0.0008957671142641266,-0.007055539560732981
1765408807.854266,-9.85035267998313,-0.05993383449285594,0.28153640155315185,-0.00395938200765407,0.0015046151503602353,-0.007119233096568516
1765408807.857276,-9.851294350980014,-0.05978078032167902,0.28057033026428035,-0.0038203221480184024,0.002136233306949009,-0.007210137658113426
1765408807.860286,-9.853221030648633,-0.05940512290825345,0.2806279665410956,-0.003673151789646221,0.0027839203120962534,-0.00732611461980931
1765408807.863221,-9.856094162415431,-0.058807176552364886,0.2818168740556483,-0.003518086043806922,0.003439376137908681,-0.00746389029423365
1765408807.863721,-9.859865890157554,-0.058004514274612465,0.2842160053788716,-0.0033550052058069235,0.004092777226335894,-0.007619308383734079
1765408807.868302,-9.864478291935415,-0.057030790236953954,0.28786536715386163,-0.0031834379817372253,0.004732955641594011,-0.007787632862570577
1765408807.870267,-9.869861409005551,-0.05593370701612768,0.29275534050782487,-0.003002581255024853,0.005347702877450766,-0.007963879788188544
1765408807.872258,-9.87593053950462,-0.054772310619885245,0.29881700170640657,-0.0028113582524007153,0.005924216161516772,-0.008143156309982587
1765408807.874261,-9.882583511266803,-0.053613544927220855,0.30591509099389985,-0.0026085155768410186,0.006449693901712352,-0.008320986261954669
1765408807.877264,-9.889698717851028,-0.0525278150151567,0.3138452323046008,-0.0023927584455642388,0.0069120644865022975,-0.008493600182143358
1765408807.880354,-9.897134669279266,-0.05158337909495811,0.3223366794337748,-0.0021629230703085964,0.007300800974317538,-0.008658163302575492
1765408807.882295,-9.904731715395291,-0.050839764801646176,0.33106134018261413,-0.0019181846735715662,0.007607743737316632,-0.008812913073987773
1765408807.88434,-9.91231632748648,-0.050340945125609174,0.33964905319421973,-0.0016582969504759086,0.007827835973548932,-0.008957183874548233
1765408807.887357,-9.919707781480506,-0.050109437302050065,0.3477080469627942,-0.0013838514462388735,0.007959677225681049,-0.00909131235155781
1765408807.889382,-9.926726451977522,-0.05014254637974073,0.3548484886645053,-0.0010965336728531523,0.008005813960458732,-0.00921643829004289
1765408807.892307,-9.933202559413786,-0.05041159059954488,0.36070649840197094,-0.0007993413440990986,0.007972711124205565,-0.009334234559073597
1765408807.894292,-9.938984272341678,-0.05086430655108587,0.3649661302632807,-0.00049672442475183,0.007870385858962542,-0.009446607420196172
1765408807.895345,-9.94394435174218,-0.05143005900836876,0.367377324486389,-0.00019460929432566466,0.00771173267422212,-0.009555404114747652
1765408807.899346,-9.94798479727522,-0.05202715740607035,0.3677684290372053,9.972062824289705e-05,0.007511616927810696,-0.009662156045262903
1765408807.902326,-9.951039269356281,-0.05257143406582217,0.36605263353541617,0.0003779002250976505,0.007285844475797559,-0.009767882281735191
1765408807.904298,-9.953073541098409,-0.05298511190874826,0.3622286239497227,0.0006309084420617586,0.007050121830638139,-0.009872979832756722
1765408807.905263,-9.954084680571388,-0.05320487054215717,0.356376600316051,0.0008496202226202717,0.006819107904418081,-0.009977225223705144
1765408807.90936,-9.954099689381492,-0.05318804337067488,0.34865100039266356,0.0010254428921357111,0.0066056352136812,-0.010079898003172506
1765408807.912282,-9.953173871692687,-0.05291615889047172,0.3392708259027053,0.0011509824686843247,0.006420151842756251,-0.01018001089237835
1765408807.91434,-9.951388691782899,-0.052395544425884656,0.32850794927185983,0.0012206810167570937,0.006270408739305323,-0.010276602948557948
1765408807.917252,-9.948848739584333,-0.05165526160083003,0.3166737488362207,0.0012313698190326056,0.00616139215199332,-0.010369035468139887
1765408807.919222,-9.945677669019453,-0.05074303523401461,0.3041048253539122,0.0011826892659837131,0.006095478336066537,-0.010457234227733285
1765408807.922255,-9.942013248145715,-0.04971997338339905,0.29114885643483973,0.0010773310646817618,0.006072766143302418,-0.010541841721997108
1765408807.924232,-9.938001724481044,-0.04865479193083879,0.27815151293449364,0.0009210651408027364,0.006091525035805897,-0.010624265622504677
1765408807.9283,-9.933791688392796,-0.04761807152490981,0.2654449679252773,0.0007225287951038408,0.006148686432990821,-0.010706624460890516
1765408807.930282,-9.929527745157428,-0.0466769212906721,0.2533381998046853,0.0004927801024971906,0.0062403076581687665,-0.01079159941960376
1765408807.932243,-9.925344564299637,-0.04589036488007737,0.24210910964930618,0.0002446457475760541,0.0063619500142966775,-0.010882209163607288
1765408807.935256,-9.92136198892985,-0.04530574297096838,0.23199832962868272,-8.080900859854725e-06,0.0065089358636191445,-0.010981535747918296
1765408807.935756,-9.917681674111913,-0.044956327915509846,0.22320447586645625,-0.0002515171110341367,0.006676480315052651,-0.011092438881800094
1765408807.940328,-9.914385363575317,-0.04486013892652605,0.21588066600114927,-0.0004725610573588272,0.006859720210816052,-0.011217296485815782
1765408807.943278,-9.911534759270259,-0.045019747751885185,0.21013248928329925,-0.0006596771216836826,0.007053676799146081,-0.011357800638963546
1765408807.945292,-9.909173047117752,-0.04542282491812323,0.20601805301129755,-0.0008035336133480946,0.0072531895698510415,-0.011514825250263667
1765408807.947235,-9.90732819657601,-0.04604329835119455,0.203550790014657,-0.0008974499161473967,0.00745285449964361,-0.011688370926509362
1765408807.950246,-9.906017870581278,-0.04684313684250923,0.2027051942033148,-0.0009376278663011862,0.007646994668459208,-0.011877584653437374
1765408807.952262,-9.905255268093251,-0.047774801025667994,0.20342481552420372,-0.0009231585269287698,0.00782968403968531,-0.012080845221887519
1765408807.95422,-9.905054826138317,-0.04878430722227238,0.20563117004827888,-0.0008558156193460474,0.007994834851658816,-0.012295899424792789
1765408807.956288,-9.905436645297119,-0.049814698091100416,0.20923198282972416,-0.0007396711075843055,0.008136347248200637,-0.012520030251177169
1765408807.959301,-9.90642869153605,-0.05080959848443747,0.21412732393033856,-0.0005805891028417955,0.00824830966104959,-0.012750236990849161
1765408807.962266,-9.908066115467195,-0.05171650374740015,0.22021257010762596,-0.0003856643013116733,0.008325231344194809,-0.012983407506550582
1765408807.964281,-9.910387410931806,-0.05248951627109929,0.2273776885838232,-0.00016267095850862792,0.008362284252908686,-0.013216464882755614
1765408807.967261,-9.913427643063187,-0.05309140927958042,0.23550307098379034,8.041903535196848e-05,0.00835553215192363,-0.013446475859965727
1765408807.969371,-9.917209488020546,-0.05349508242929129,0.24445287898958878,0.00033580494322583667,0.008302133252880692,-0.013670718421671607
1765408807.972376,-9.921733129395493,-0.053684560541010666,0.25406735702381916,0.0005960909615487735,0.008200515677708646,-0.013886718193471693
1765408807.974357,-9.926966109000888,-0.053655633015028896,0.2641557104753832,0.0008543907564821829,0.008050533128123467,-0.014092270744701966
1765408807.977348,-9.93283424238098,-0.05341611905457144,0.27449108634109776,0.0011043362615442251,0.007853606077779894,-0.014285463832743062
1765408807.98038,-9.939214892559225,-0.0529856784170479,0.28480918545539147,0.0013400432387585405,0.007612846376929991,-0.014464702965896723
1765408807.982351,-9.945934145037977,-0.05239512131640931,0.29481207786745256,0.001556087465947222,0.007333156103388061,-0.01462873453823436
1765408807.985379,-9.952769338731768,-0.05168527906283414,0.3041784762915568,0.001747529205774444,0.0070212832216846495,-0.014776659747249754
1765408807.985879,-9.959457690318747,-0.050905571785419566,0.31258067862887545,0.0019100013449100054,0.0066858047782611795,-0.014907937730141823
1765408807.990331,-9.965710603552006,-0.05011236339800158,0.3197068532622706,0.0020398603823389527,0.006336999276320651,-0.015022380716591434
1765408807.992278,-9.971232243392336,-0.04936707999103914,0.3252860310091709,0.0021343912801047773,0.005986573732777593,-0.01512014389361114
1765408807.994309,-9.975740466004526,-0.048734015567674684,0.3291125826336429,0.002192050931936388,0.00564722929801785,-0.015201711932115529
